onset	duration	trial_type	trial_type_id	response_time	bad_epoch	outliers	direction	name_direction	event_num	response_accuracy
n/a	0.2	RANDOM	0	0.759198041163472	1	0	0	NONE	n/a	1
55.81298828125	0.2	COHERENT	1	0.579075444886257	0	0	180	LEFT	2.0	1
57.2529296875	0.2	RANDOM	0	0.819815526045204	0	0	0	NONE	6.0	1
58.8330078125	0.2	COHERENT	1	0.654714414902628	0	0	180	LEFT	9.0	1
60.0830078125	0.2	RANDOM	0	0.848396372095522	0	0	0	NONE	13.0	1
61.58251953125	0.2	COHERENT	1	0.698347534009372	0	0	180	LEFT	17.0	1
62.97265625	0.2	RANDOM	0	0.723150823365359	0	0	0	NONE	21.0	1
64.57275390625	0.2	COHERENT	1	0.664885595720989	0	0	180	LEFT	24.0	1
65.95263671875	0.2	COHERENT	1	0.834710237404579	0	0	180	LEFT	28.0	1
67.6923828125	0.2	COHERENT	1	0.65910290046304	0	0	0	RIGHT	31.0	1
68.97216796875	0.2	RANDOM	0	0.683390944972416	0	0	0	NONE	35.0	1
70.31201171875	0.2	COHERENT	1	0.638165607602787	0	0	0	RIGHT	39.0	1
71.57177734375	0.2	RANDOM	0	0.762919153345138	0	0	0	NONE	43.0	1
72.94189453125	0.2	COHERENT	1	0.67788896307502	0	0	0	RIGHT	47.0	1
74.33154296875	0.2	RANDOM	0	0.927622738145146	0	0	0	NONE	51.0	1
76.00146484375	0.2	COHERENT	1	0.619398259215814	0	0	180	LEFT	54.0	1
77.361328125	0.2	COHERENT	1	0.659408063054798	0	0	0	RIGHT	58.0	1
78.78125	0.2	RANDOM	0	0.66905524559661	0	0	0	NONE	62.0	1
80.08154296875	0.2	RANDOM	0	0.712893013798748	0	0	0	NONE	66.0	1
81.43115234375	0.2	RANDOM	0	0.638671797181814	0	0	0	NONE	70.0	1
82.7509765625	0.2	COHERENT	1	0.703621323107654	0	0	0	RIGHT	74.0	1
84.10107421875	0.2	COHERENT	1	0.648390516356812	0	0	180	LEFT	78.0	1
85.60107421875	0.2	COHERENT	1	0.809063600592708	0	0	0	RIGHT	82.0	1
87.19091796875	0.2	RANDOM	0	0.685068282769862	0	0	0	NONE	85.0	1
88.62060546875	0.2	COHERENT	1	0.660835475408021	0	0	0	RIGHT	89.0	1
90.0107421875	0.2	COHERENT	1	0.674622123593508	0	0	0	RIGHT	93.0	1
91.29052734375	0.2	COHERENT	1	0.768387932585028	0	0	180	LEFT	97.0	1
92.83056640625	0.2	COHERENT	1	0.724346420814982	0	0	180	LEFT	100.0	1
94.31005859375	0.2	COHERENT	1	0.748803798867812	0	0	0	RIGHT	104.0	1
95.9599609375	0.2	RANDOM	0	0.669958357832002	0	0	0	NONE	107.0	1
97.26025390625	0.2	RANDOM	0	0.672418070937056	0	0	0	NONE	111.0	1
98.830078125	0.2	COHERENT	1	0.709437522864391	0	0	180	LEFT	114.0	1
100.27001953125	0.2	COHERENT	1	0.754275294688341	0	0	180	LEFT	118.0	1
101.91943359375	0.2	COHERENT	1	n/a	0	1	180	LEFT	121.0	0
103.48974609375	0.2	COHERENT	1	0.767977427021833	0	0	180	LEFT	124.0	1
104.849609375	0.2	RANDOM	0	n/a	0	1	0	NONE	128.0	0
106.74951171875	0.2	RANDOM	0	0.85815040682246	0	0	0	NONE	129.0	1
108.208984375	0.2	COHERENT	1	0.808336160589533	0	0	0	RIGHT	133.0	1
109.7890625	0.2	COHERENT	1	n/a	0	1	0	RIGHT	136.0	0
111.3388671875	0.2	COHERENT	1	0.762870556731286	0	0	180	LEFT	139.0	1
112.9287109375	0.2	COHERENT	1	n/a	0	1	180	LEFT	142.0	0
114.388671875	0.2	RANDOM	0	0.913188336329767	0	0	0	NONE	146.0	1
116.12841796875	0.2	RANDOM	0	n/a	0	1	0	NONE	149.0	0
117.87841796875	0.2	COHERENT	1	0.733814309016452	0	0	180	LEFT	152.0	1
119.29833984375	0.2	COHERENT	1	0.943845253892505	0	0	0	RIGHT	156.0	1
121.1181640625	0.2	COHERENT	1	0.744612416343443	0	0	180	LEFT	159.0	1
122.6982421875	0.2	RANDOM	0	0.829385738794372	0	0	0	NONE	162.0	1
124.3681640625	0.2	RANDOM	0	0.835035623431395	0	0	0	NONE	165.0	1
125.9677734375	0.2	COHERENT	1	0.685070999350501	0	0	0	RIGHT	168.0	1
127.24755859375	0.2	RANDOM	0	0.727877070487011	0	0	0	NONE	172.0	1
128.73779296875	0.2	RANDOM	0	0.759620318574889	0	0	0	NONE	176.0	1
130.36767578125	0.2	RANDOM	0	0.764105091839156	0	0	0	NONE	179.0	1
131.9873046875	0.2	RANDOM	0	0.779172155169363	0	0	0	NONE	182.0	1
133.63720703125	0.2	RANDOM	0	0.823912733761972	0	0	0	NONE	185.0	1
135.197265625	0.2	RANDOM	0	0.804817584608827	0	0	0	NONE	188.0	1
136.626953125	0.2	COHERENT	1	n/a	0	1	0	RIGHT	192.0	0
138.19677734375	0.2	RANDOM	0	0.738391747869173	0	0	0	NONE	195.0	1
139.716796875	0.2	COHERENT	1	0.694304959753936	0	0	0	RIGHT	198.0	1
141.06689453125	0.2	COHERENT	1	0.698046597211942	0	0	0	RIGHT	202.0	1
142.4765625	0.2	COHERENT	1	0.74490429787329	0	0	0	RIGHT	206.0	1
143.99658203125	0.2	RANDOM	0	0.654654046436917	0	0	0	NONE	209.0	1
145.4365234375	0.2	RANDOM	0	0.744417426201835	0	0	0	NONE	213.0	1
146.83642578125	0.2	COHERENT	1	0.678319993916375	0	0	180	LEFT	217.0	1
148.3359375	0.2	COHERENT	1	0.644132124838507	0	0	180	LEFT	221.0	1
149.8662109375	0.2	COHERENT	1	0.589909773294494	0	0	180	LEFT	224.0	1
151.22607421875	0.2	COHERENT	1	0.589826162966347	0	0	0	RIGHT	228.0	1
152.60595703125	0.2	RANDOM	0	0.629569440032355	0	0	0	NONE	232.0	1
154.1357421875	0.2	RANDOM	0	0.769118391013762	0	0	0	NONE	235.0	1
155.50537109375	0.2	RANDOM	0	0.698892661246646	0	0	0	NONE	239.0	1
156.95556640625	0.2	RANDOM	0	0.70910398709384	0	0	0	NONE	243.0	1
158.4453125	0.2	RANDOM	0	0.614904732527066	0	0	0	NONE	247.0	1
159.8154296875	0.2	RANDOM	0	0.66948235248492	0	0	0	NONE	251.0	1
161.1953125	0.2	RANDOM	0	0.664584357080457	0	0	0	NONE	255.0	1
162.69482421875	0.2	COHERENT	1	0.744209154996497	0	0	180	LEFT	259.0	1
164.11474609375	0.2	RANDOM	0	n/a	0	1	0	NONE	263.0	0
165.53466796875	0.2	RANDOM	0	0.727663366124034	0	0	0	NONE	267.0	1
167.0146484375	0.2	RANDOM	0	0.679743180473452	0	0	0	NONE	271.0	1
168.564453125	0.2	COHERENT	1	0.694542207820632	0	0	180	LEFT	274.0	1
169.91455078125	0.2	COHERENT	1	0.758345034755621	0	0	0	RIGHT	278.0	1
171.47412109375	0.2	COHERENT	1	0.790139897882909	0	0	0	RIGHT	281.0	1
172.92431640625	0.2	RANDOM	0	0.677935748637537	0	0	0	NONE	285.0	1
174.3740234375	0.2	COHERENT	1	0.694817789863009	0	0	180	LEFT	289.0	1
175.84423828125	0.2	COHERENT	1	0.784657837575651	0	0	180	LEFT	293.0	1
177.423828125	0.2	COHERENT	1	0.679461561587232	0	0	0	RIGHT	296.0	1
178.91357421875	0.2	COHERENT	1	0.729073875307222	0	0	180	LEFT	300.0	1
180.3134765625	0.2	RANDOM	0	0.662949880890665	0	0	0	NONE	304.0	1
181.74365234375	0.2	RANDOM	0	0.844579575899843	0	0	0	NONE	308.0	1
183.443359375	0.2	COHERENT	1	0.619625244642521	0	0	180	LEFT	311.0	1
184.9130859375	0.2	RANDOM	0	0.629434214672074	0	0	0	NONE	315.0	1
186.31298828125	0.2	RANDOM	0	0.704295035178802	0	0	0	NONE	319.0	1
187.61328125	0.2	RANDOM	0	0.758122878803988	0	0	0	NONE	323.0	1
189.203125	0.2	RANDOM	0	0.8346338712945	0	0	0	NONE	326.0	1
190.6728515625	0.2	RANDOM	0	0.764165158463584	0	0	0	NONE	330.0	1
192.23291015625	0.2	COHERENT	1	0.678585313318763	0	0	180	LEFT	333.0	1
193.5224609375	0.2	COHERENT	1	0.788127816944325	0	0	0	RIGHT	337.0	1
194.97265625	0.2	COHERENT	1	0.663137626819662	0	0	0	RIGHT	341.0	1
196.322265625	0.2	RANDOM	0	0.733110412715178	0	0	0	NONE	345.0	1
197.7724609375	0.2	COHERENT	1	n/a	0	1	0	RIGHT	349.0	0
199.322265625	0.2	RANDOM	0	0.738599113548844	0	0	0	NONE	352.0	1
200.7421875	0.2	RANDOM	0	0.883337941457285	0	0	0	NONE	356.0	1
202.3818359375	0.2	RANDOM	0	0.739099568127131	0	0	0	NONE	359.0	1
203.86181640625	0.2	COHERENT	1	0.680083054936404	0	0	180	LEFT	363.0	1
205.19189453125	0.2	RANDOM	0	0.807831782065477	0	0	0	NONE	367.0	1
206.6318359375	0.2	COHERENT	1	0.743585246909788	0	0	0	RIGHT	371.0	1
208.20166015625	0.2	RANDOM	0	0.734551407975232	0	0	0	NONE	374.0	1
209.83154296875	0.2	COHERENT	1	0.799274552155111	0	0	0	RIGHT	377.0	1
211.50146484375	0.2	COHERENT	1	0.843671030503174	0	0	180	LEFT	380.0	1
212.951171875	0.2	COHERENT	1	1.05881941015105	0	0	180	LEFT	384.0	1
214.701171875	0.2	COHERENT	1	0.998208263958077	0	0	180	LEFT	386.0	1
216.40087890625	0.2	RANDOM	0	0.658142136344395	0	0	0	NONE	388.0	1
217.82080078125	0.2	COHERENT	1	0.729137564034318	0	0	0	RIGHT	392.0	1
219.36083984375	0.2	COHERENT	1	0.740038297757565	0	0	0	RIGHT	395.0	1
220.810546875	0.2	RANDOM	0	0.734892187956575	0	0	0	NONE	399.0	1
222.140625	0.2	RANDOM	0	0.978584890737693	0	0	0	NONE	403.0	1
223.88037109375	0.2	COHERENT	1	0.719549542587629	0	0	0	RIGHT	406.0	1
225.330078125	0.2	COHERENT	1	1.07400630488337	0	0	0	RIGHT	410.0	1
227.2802734375	0.2	COHERENT	1	0.605112665667548	0	0	0	RIGHT	412.0	1
228.52978515625	0.2	COHERENT	1	0.707860396716569	0	0	180	LEFT	416.0	1
229.9697265625	0.2	RANDOM	0	0.644634692311229	0	0	0	NONE	420.0	1
231.22998046875	0.2	COHERENT	1	n/a	0	1	180	LEFT	424.0	0
232.86962890625	0.2	COHERENT	1	0.574328068803879	0	0	0	RIGHT	427.0	1
234.26953125	0.2	RANDOM	0	0.644063908472162	0	0	0	NONE	431.0	1
235.6396484375	0.2	RANDOM	0	0.654916347419203	0	0	0	NONE	435.0	1
237.0693359375	0.2	COHERENT	1	1.13435696114539	0	0	0	RIGHT	439.0	1
239.08935546875	0.2	COHERENT	1	0.654389330720733	0	0	180	LEFT	441.0	1
240.458984375	0.2	RANDOM	0	0.714311974566954	0	0	0	NONE	445.0	1
241.97900390625	0.2	RANDOM	0	0.820098050462548	0	0	0	NONE	448.0	1
243.62890625	0.2	RANDOM	0	0.724869815403508	0	0	0	NONE	451.0	1
245.138671875	0.2	RANDOM	0	0.659439454655512	0	0	0	NONE	454.0	1
246.40869140625	0.2	COHERENT	1	0.699151641962089	0	0	0	RIGHT	458.0	1
247.80859375	0.2	COHERENT	1	0.767326051289274	0	0	180	LEFT	462.0	1
249.17822265625	0.2	COHERENT	1	0.688126851047855	0	0	0	RIGHT	466.0	1
250.49853515625	0.2	COHERENT	1	0.742945341182349	0	0	180	LEFT	470.0	1
252.078125	0.2	COHERENT	1	0.649937156427768	0	0	0	RIGHT	473.0	1
253.56787109375	0.2	COHERENT	1	0.614609530730377	0	0	180	LEFT	477.0	1
254.93798828125	0.2	RANDOM	0	0.599438935485523	0	0	0	NONE	481.0	1
256.23779296875	0.2	RANDOM	0	0.828323857498617	0	0	0	NONE	485.0	1
257.70751953125	0.2	RANDOM	0	0.658502837919514	0	0	0	NONE	489.0	1
258.9677734375	0.2	RANDOM	0	0.687853381899913	0	0	0	NONE	493.0	1
260.5576171875	0.2	RANDOM	0	0.569792887872609	0	0	0	NONE	496.0	1
261.75732421875	0.2	COHERENT	1	0.784081318739482	0	0	0	RIGHT	500.0	1
263.1572265625	0.2	RANDOM	0	0.922429540943995	0	0	0	NONE	504.0	1
264.88720703125	0.2	RANDOM	0	0.718879754469526	0	0	0	NONE	507.0	1
266.47705078125	0.2	RANDOM	0	0.664938719968632	0	0	0	NONE	510.0	1
267.8271484375	0.2	RANDOM	0	0.792808184032765	0	0	0	NONE	514.0	1
269.51708984375	0.2	COHERENT	1	n/a	0	1	180	LEFT	517.0	0
271.146484375	0.2	RANDOM	0	0.839344724463444	0	0	0	NONE	520.0	1
272.57666015625	0.2	RANDOM	0	0.738129446890525	0	0	0	NONE	524.0	1
274.08642578125	0.2	RANDOM	0	0.670818306614819	0	0	0	NONE	527.0	1
275.54638671875	0.2	RANDOM	0	0.748778745954041	0	0	0	NONE	531.0	1
n/a	0.2	RANDOM	0	0.689862746257859	1	0	0	NONE	n/a	1
n/a	0.2	COHERENT	1	0.698055350636423	1	0	0	RIGHT	n/a	1
n/a	0.2	RANDOM	0	0.594833123454009	1	0	0	NONE	n/a	1
307.72412109375	0.2	RANDOM	0	0.644635899676359	0	0	0	NONE	535.0	1
309.263671875	0.2	RANDOM	0	0.619611359896226	0	0	0	NONE	538.0	1
310.513671875	0.2	COHERENT	1	0.493313286977354	0	0	0	RIGHT	542.0	1
311.61376953125	0.2	RANDOM	0	0.637890327401692	0	0	0	NONE	546.0	1
312.943359375	0.2	COHERENT	1	0.598312459933368	0	0	180	LEFT	550.0	1
314.443359375	0.2	COHERENT	1	0.629858906824666	0	0	0	RIGHT	554.0	1
315.7333984375	0.2	COHERENT	1	0.578659204318683	0	0	180	LEFT	558.0	1
n/a	0.2	RANDOM	0	0.589524018800148	1	0	0	NONE	n/a	1
318.60302734375	0.2	RANDOM	0	0.729201554608153	0	0	0	NONE	562.0	1
320.0029296875	0.2	RANDOM	0	0.653062733701518	0	0	0	NONE	566.0	1
321.4228515625	0.2	COHERENT	1	n/a	0	1	180	LEFT	570.0	0
322.8828125	0.2	COHERENT	1	0.559802208761539	0	0	0	RIGHT	574.0	1
324.08251953125	0.2	RANDOM	0	0.68862066508882	0	0	0	NONE	578.0	1
325.5927734375	0.2	RANDOM	0	0.719256453689013	0	0	0	NONE	581.0	1
327.20263671875	0.2	COHERENT	1	0.689217105526041	0	0	180	LEFT	584.0	1
328.64208984375	0.2	COHERENT	1	0.830343484492914	0	0	180	LEFT	588.0	1
330.22216796875	0.2	COHERENT	1	0.748803798865993	0	0	180	LEFT	591.0	1
331.8720703125	0.2	COHERENT	1	0.769399406213779	0	0	180	LEFT	594.0	1
333.39208984375	0.2	RANDOM	0	1.02937499320979	0	0	0	NONE	597.0	1
335.0419921875	0.2	RANDOM	0	0.73315750011534	0	0	0	NONE	599.0	1
336.4619140625	0.2	RANDOM	0	0.763050454756012	0	0	0	NONE	603.0	1
337.86181640625	0.2	COHERENT	1	0.707886355157825	0	0	180	LEFT	607.0	1
339.4814453125	0.2	COHERENT	1	0.629619244020432	0	0	180	LEFT	610.0	1
340.92138671875	0.2	RANDOM	0	0.629436629413249	0	0	0	NONE	614.0	1
342.37109375	0.2	RANDOM	0	1.12411364001309	0	0	0	NONE	618.0	1
344.291015625	0.2	COHERENT	1	0.650044914138562	0	0	0	RIGHT	620.0	1
345.62109375	0.2	RANDOM	0	0.643848393050575	0	0	0	NONE	624.0	1
346.99072265625	0.2	COHERENT	1	0.914604882360436	0	0	0	RIGHT	628.0	1
348.62060546875	0.2	RANDOM	0	0.664164796249679	0	0	0	NONE	631.0	1
349.99072265625	0.2	RANDOM	0	0.648294228652958	0	0	0	NONE	635.0	1
351.41064453125	0.2	RANDOM	0	0.794065357313229	0	0	0	NONE	639.0	1
352.9306640625	0.2	COHERENT	1	0.584860856724845	0	0	0	RIGHT	642.0	1
354.1904296875	0.2	COHERENT	1	n/a	0	1	0	RIGHT	646.0	0
355.93017578125	0.2	COHERENT	1	0.723546840494237	0	0	180	LEFT	648.0	1
357.43017578125	0.2	COHERENT	1	0.674313640738546	0	0	0	RIGHT	652.0	1
358.7099609375	0.2	COHERENT	1	0.678075501629792	0	0	0	RIGHT	656.0	1
360.27978515625	0.2	RANDOM	0	0.669904328056873	0	0	0	NONE	659.0	1
361.849609375	0.2	COHERENT	1	n/a	0	1	0	RIGHT	662.0	0
363.8994140625	0.2	COHERENT	1	0.699065918743145	0	0	180	LEFT	663.0	1
365.49951171875	0.2	RANDOM	0	0.710288114536525	0	0	0	NONE	666.0	1
367.08935546875	0.2	RANDOM	0	0.673809865897056	0	0	0	NONE	669.0	1
368.369140625	0.2	COHERENT	1	n/a	0	1	0	RIGHT	673.0	0
369.9091796875	0.2	COHERENT	1	n/a	0	1	0	RIGHT	676.0	0
371.2392578125	0.2	COHERENT	1	0.668571694190177	0	0	180	LEFT	680.0	1
372.6787109375	0.2	RANDOM	0	0.66432205610181	0	0	0	NONE	684.0	1
n/a	0.2	COHERENT	1	n/a	1	1	0	RIGHT	n/a	0
375.27880859375	0.2	RANDOM	0	0.782672620607627	0	0	0	NONE	688.0	1
n/a	0.2	RANDOM	0	0.710807585175644	1	0	0	NONE	n/a	1
378.20849609375	0.2	COHERENT	1	0.788618612565188	0	0	0	RIGHT	692.0	1
379.728515625	0.2	RANDOM	0	0.734361850994901	0	0	0	NONE	695.0	1
381.3681640625	0.2	COHERENT	1	0.649023781556025	0	0	0	RIGHT	698.0	1
382.66796875	0.2	RANDOM	0	0.828688181183679	0	0	0	NONE	702.0	1
384.34814453125	0.2	RANDOM	0	0.719813352781784	0	0	0	NONE	705.0	1
385.93798828125	0.2	RANDOM	0	0.644577644110541	0	0	0	NONE	708.0	1
387.48779296875	0.2	RANDOM	0	0.599420221260516	0	0	0	NONE	711.0	1
388.95751953125	0.2	COHERENT	1	1.14386831464435	0	0	0	RIGHT	715.0	1
390.83740234375	0.2	COHERENT	1	0.664679739256826	0	0	0	RIGHT	717.0	1
392.38720703125	0.2	COHERENT	1	0.719822106206266	0	0	180	LEFT	720.0	1
393.9375	0.2	RANDOM	0	0.604591383973457	0	0	0	NONE	723.0	1
395.37744140625	0.2	COHERENT	1	0.614393713469326	0	0	180	LEFT	727.0	1
396.64697265625	0.2	RANDOM	0	0.608310383257049	0	0	0	NONE	731.0	1
397.84716796875	0.2	RANDOM	0	0.688142546849122	0	0	0	NONE	735.0	1
399.4169921875	0.2	COHERENT	1	0.554971524194116	0	0	180	LEFT	738.0	1
400.56689453125	0.2	COHERENT	1	0.598780315533077	0	0	0	RIGHT	742.0	1
n/a	0.2	RANDOM	0	n/a	1	1	0	NONE	n/a	0
n/a	0.2	COHERENT	1	0.658537851631991	1	0	0	RIGHT	n/a	1
404.49658203125	0.2	RANDOM	0	0.608143464451132	0	0	0	NONE	746.0	1
405.71630859375	0.2	COHERENT	1	0.547891208781948	0	0	180	LEFT	750.0	1
406.96630859375	0.2	RANDOM	0	0.557891245000064	0	0	0	NONE	754.0	1
408.30615234375	0.2	COHERENT	1	0.61469978158857	0	0	180	LEFT	758.0	1
409.6162109375	0.2	RANDOM	0	0.638598449495476	0	0	0	NONE	762.0	1
411.15576171875	0.2	RANDOM	0	0.629295065362385	0	0	0	NONE	765.0	1
412.48583984375	0.2	RANDOM	0	0.638014988282521	0	0	0	NONE	769.0	1
413.8056640625	0.2	COHERENT	1	0.713097964737244	0	0	0	RIGHT	773.0	1
415.1357421875	0.2	COHERENT	1	0.712832041652291	0	0	180	LEFT	777.0	1
416.5556640625	0.2	RANDOM	0	0.677633906310803	0	0	0	NONE	781.0	1
417.9052734375	0.2	COHERENT	1	0.713616228007595	0	0	180	LEFT	785.0	1
419.4453125	0.2	COHERENT	1	0.514283782496932	0	0	0	RIGHT	788.0	1
420.76513671875	0.2	COHERENT	1	0.619133543495991	0	0	180	LEFT	792.0	1
422.1650390625	0.2	RANDOM	0	0.735100157318811	0	0	0	NONE	796.0	1
423.4951171875	0.2	RANDOM	0	0.73778383743047	0	0	0	NONE	800.0	1
424.96484375	0.2	RANDOM	0	0.674592241204664	0	0	0	NONE	804.0	1
426.384765625	0.2	COHERENT	1	0.87912844839957	0	0	0	RIGHT	808.0	1
427.98486328125	0.2	RANDOM	0	0.784146516678447	0	0	0	NONE	811.0	1
429.46484375	0.2	COHERENT	1	0.768088504999469	0	0	180	LEFT	815.0	1
431.12451171875	0.2	COHERENT	1	0.574833051010501	0	0	180	LEFT	818.0	1
432.38427734375	0.2	RANDOM	0	1.05738414989537	0	0	0	NONE	822.0	1
434.2041015625	0.2	COHERENT	1	0.78937955706715	0	0	180	LEFT	824.0	1
435.77392578125	0.2	COHERENT	1	0.665277990745381	0	0	180	LEFT	827.0	1
437.14404296875	0.2	RANDOM	0	0.828062462041999	0	0	0	NONE	831.0	1
438.60400390625	0.2	COHERENT	1	0.708635225964827	0	0	180	LEFT	835.0	1
439.94384765625	0.2	RANDOM	0	0.853789690758276	0	0	0	NONE	839.0	1
441.513671875	0.2	RANDOM	0	0.648562566482724	0	0	0	NONE	842.0	1
442.86376953125	0.2	RANDOM	0	0.688316709871287	0	0	0	NONE	846.0	1
444.34326171875	0.2	COHERENT	1	0.739064252571552	0	0	180	LEFT	850.0	1
445.83349609375	0.2	RANDOM	0	1.17957535614551	0	0	0	NONE	854.0	1
447.63330078125	0.2	COHERENT	1	n/a	0	1	180	LEFT	856.0	0
449.0830078125	0.2	RANDOM	0	0.603600737460511	0	0	0	NONE	860.0	1
450.56298828125	0.2	RANDOM	0	0.514089697880991	0	0	0	NONE	864.0	1
451.85302734375	0.2	COHERENT	1	0.684098765224917	0	0	180	LEFT	868.0	1
453.3828125	0.2	COHERENT	1	n/a	0	1	180	LEFT	871.0	0
454.79248046875	0.2	RANDOM	0	0.618842265652347	0	0	0	NONE	875.0	1
456.15234375	0.2	COHERENT	1	0.799647629268293	0	0	180	LEFT	879.0	1
457.8525390625	0.2	COHERENT	1	1.1292890285149	0	0	0	RIGHT	882.0	1
459.64208984375	0.2	COHERENT	1	0.687891715879232	0	0	180	LEFT	884.0	1
461.072265625	0.2	COHERENT	1	0.800014669533994	0	0	0	RIGHT	888.0	1
462.572265625	0.2	RANDOM	0	0.707859793034004	0	0	0	NONE	892.0	1
464.11181640625	0.2	RANDOM	0	0.814621423320204	0	0	0	NONE	895.0	1
465.56201171875	0.2	COHERENT	1	n/a	0	1	0	RIGHT	899.0	0
467.1015625	0.2	COHERENT	1	0.684010023582232	0	0	180	LEFT	902.0	1
n/a	0.2	COHERENT	1	0.830051904806169	1	0	180	LEFT	n/a	1
470.28125	0.2	COHERENT	1	0.604800862543925	0	0	0	RIGHT	905.0	1
471.78125	0.2	RANDOM	0	0.569525757411611	0	0	0	NONE	909.0	1
473.0712890625	0.2	RANDOM	0	0.928252683075698	0	0	0	NONE	913.0	1
474.7412109375	0.2	RANDOM	0	0.648901535412733	0	0	0	NONE	916.0	1
476.291015625	0.2	COHERENT	1	0.799096465187176	0	0	180	LEFT	919.0	1
477.94091796875	0.2	RANDOM	0	0.910857208054949	0	0	0	NONE	922.0	1
479.5107421875	0.2	RANDOM	0	0.638796458060824	0	0	0	NONE	925.0	1
480.890625	0.2	RANDOM	0	0.629378072000691	0	0	0	NONE	929.0	1
482.140625	0.2	COHERENT	1	0.80334127380047	0	0	180	LEFT	933.0	1
483.58056640625	0.2	RANDOM	0	0.693115700993076	0	0	0	NONE	937.0	1
484.93017578125	0.2	RANDOM	0	n/a	0	1	0	NONE	941.0	0
487.01025390625	0.2	RANDOM	0	0.939346595881943	0	0	0	NONE	942.0	1
488.85986328125	0.2	RANDOM	0	0.629206323716062	0	0	0	NONE	945.0	1
490.3798828125	0.2	COHERENT	1	0.78027569070764	0	0	0	RIGHT	948.0	1
491.86962890625	0.2	RANDOM	0	n/a	0	1	0	NONE	952.0	0
493.669921875	0.2	RANDOM	0	0.718619868228416	0	0	0	NONE	953.0	1
495.16943359375	0.2	COHERENT	1	0.834493212772941	0	0	0	RIGHT	957.0	1
496.61962890625	0.2	RANDOM	0	0.723382940115698	0	0	0	NONE	961.0	1
498.0693359375	0.2	RANDOM	0	0.894359110265214	0	0	0	NONE	965.0	1
499.7392578125	0.2	RANDOM	0	0.594691559403145	0	0	0	NONE	968.0	1
501.10888671875	0.2	COHERENT	1	n/a	0	1	0	RIGHT	972.0	0
502.63916015625	0.2	COHERENT	1	0.659619654525159	0	0	180	LEFT	975.0	1
503.888671875	0.2	COHERENT	1	0.688494796842861	0	0	0	RIGHT	979.0	1
505.43896484375	0.2	RANDOM	0	0.709356025436136	0	0	0	NONE	982.0	1
506.798828125	0.2	RANDOM	0	1.0380677503199	0	0	0	NONE	986.0	1
508.70849609375	0.2	COHERENT	1	0.784952737529238	0	0	0	RIGHT	988.0	1
510.12841796875	0.2	COHERENT	1	0.892599067668925	0	0	0	RIGHT	992.0	1
511.79833984375	0.2	RANDOM	0	0.814560753009573	0	0	0	NONE	995.0	1
513.4482421875	0.2	RANDOM	0	0.788998933894618	0	0	0	NONE	998.0	1
514.96826171875	0.2	COHERENT	1	0.634058137246029	0	0	0	RIGHT	1001.0	1
516.337890625	0.2	COHERENT	1	0.694984406825824	0	0	180	LEFT	1005.0	1
517.69775390625	0.2	COHERENT	1	0.863782482760143	0	0	0	RIGHT	1009.0	1
519.1875	0.2	COHERENT	1	0.903589146717422	0	0	0	RIGHT	1013.0	1
520.95751953125	0.2	COHERENT	1	0.738302100704459	0	0	0	RIGHT	1016.0	1
522.53759765625	0.2	COHERENT	1	0.608947874246951	0	0	0	RIGHT	1019.0	1
523.78759765625	0.2	RANDOM	0	n/a	0	1	0	NONE	1023.0	0
n/a	0.2	COHERENT	1	0.689304036117392	1	0	180	LEFT	n/a	1
n/a	0.2	RANDOM	0	n/a	1	1	0	NONE	n/a	0
n/a	0.2	RANDOM	0	n/a	1	1	0	NONE	n/a	0
n/a	0.2	COHERENT	1	0.649980621721625	1	0	0	RIGHT	n/a	1
540.9560546875	0.2	RANDOM	0	0.834386360591452	0	0	0	NONE	1027.0	1
542.48583984375	0.2	RANDOM	0	n/a	0	1	0	NONE	1030.0	0
544.40576171875	0.2	RANDOM	0	0.724341893179371	0	0	0	NONE	1031.0	1
545.8056640625	0.2	RANDOM	0	0.603190533740417	0	0	0	NONE	1035.0	1
547.19580078125	0.2	RANDOM	0	0.554936510485277	0	0	0	NONE	1039.0	1
548.37548828125	0.2	RANDOM	0	0.652595481780736	0	0	0	NONE	1043.0	1
549.74560546875	0.2	COHERENT	1	0.624830817378097	0	0	0	RIGHT	1047.0	1
551.04541015625	0.2	RANDOM	0	n/a	0	1	0	NONE	1051.0	0
552.625	0.2	COHERENT	1	0.459289016442199	0	0	180	LEFT	1054.0	1
553.865234375	0.2	COHERENT	1	0.655105904399534	0	0	0	RIGHT	1058.0	1
555.28515625	0.2	RANDOM	0	0.734825178962637	0	0	0	NONE	1062.0	1
556.9150390625	0.2	COHERENT	1	0.55974485871775	0	0	180	LEFT	1065.0	1
558.3349609375	0.2	COHERENT	1	n/a	0	1	0	RIGHT	1069.0	0
559.8046875	0.2	RANDOM	0	0.624126317390619	0	0	0	NONE	1073.0	1
561.33447265625	0.2	RANDOM	0	0.749316628975066	0	0	0	NONE	1076.0	1
562.6845703125	0.2	COHERENT	1	0.727881899962085	0	0	0	RIGHT	1080.0	1
564.07421875	0.2	RANDOM	0	0.757772439861583	0	0	0	NONE	1084.0	1
565.57421875	0.2	RANDOM	0	0.729916619075084	0	0	0	NONE	1088.0	1
567.07421875	0.2	COHERENT	1	0.44435838584468	0	0	180	LEFT	1092.0	1
568.1240234375	0.2	COHERENT	1	0.638279704002343	0	0	180	LEFT	1096.0	1
569.64404296875	0.2	COHERENT	1	0.67508364051173	0	0	180	LEFT	1099.0	1
571.1435546875	0.2	RANDOM	0	0.813774151913094	0	0	0	NONE	1103.0	1
572.7734375	0.2	RANDOM	0	0.754586494123942	0	0	0	NONE	1106.0	1
574.33349609375	0.2	COHERENT	1	0.719503964395699	0	0	0	RIGHT	1109.0	1
575.83349609375	0.2	RANDOM	0	n/a	0	1	0	NONE	1113.0	0
577.5634765625	0.2	COHERENT	1	0.509052855006303	0	0	0	RIGHT	1116.0	1
578.68310546875	0.2	RANDOM	0	0.738863225582463	0	0	0	NONE	1120.0	1
580.06298828125	0.2	COHERENT	1	n/a	0	1	0	RIGHT	1124.0	0
581.3828125	0.2	COHERENT	1	0.604583837910468	0	0	180	LEFT	1128.0	1
582.623046875	0.2	COHERENT	1	0.443552466833353	0	0	0	RIGHT	1132.0	1
583.9326171875	0.2	COHERENT	1	0.424279532551736	0	0	0	RIGHT	1136.0	1
585.24267578125	0.2	RANDOM	0	0.544093730492023	0	0	0	NONE	1140.0	1
586.40234375	0.2	RANDOM	0	0.772863952417538	0	0	0	NONE	1144.0	1
588.05224609375	0.2	COHERENT	1	0.534780083718942	0	0	0	RIGHT	1147.0	1
589.2724609375	0.2	COHERENT	1	0.622566396254115	0	0	0	RIGHT	1151.0	1
590.76220703125	0.2	RANDOM	0	0.734282768306002	0	0	0	NONE	1155.0	1
592.2919921875	0.2	COHERENT	1	0.649222695643402	0	0	0	RIGHT	1158.0	1
593.58203125	0.2	COHERENT	1	0.632876122705056	0	0	0	RIGHT	1162.0	1
594.81201171875	0.2	COHERENT	1	0.547867665078229	0	0	0	RIGHT	1166.0	1
595.9619140625	0.2	RANDOM	0	0.578626001664816	0	0	0	NONE	1170.0	1
597.3115234375	0.2	COHERENT	1	0.494816763599374	0	0	0	RIGHT	1174.0	1
598.6318359375	0.2	COHERENT	1	0.434342955664761	0	0	0	RIGHT	1178.0	1
599.75146484375	0.2	RANDOM	0	0.673126193032658	0	0	0	NONE	1182.0	1
601.271484375	0.2	COHERENT	1	0.380062650390755	0	0	180	LEFT	1185.0	1
602.30126953125	0.2	COHERENT	1	0.627711600522161	0	0	180	LEFT	1189.0	1
603.53125	0.2	RANDOM	0	0.618522312786808	0	0	0	NONE	1193.0	1
604.8212890625	0.2	RANDOM	0	0.7335658927841	0	0	0	NONE	1197.0	1
606.15087890625	0.2	COHERENT	1	0.688329387248814	0	0	180	LEFT	1201.0	1
607.451171875	0.2	COHERENT	1	0.66786327025693	0	0	0	RIGHT	1205.0	1
608.791015625	0.2	COHERENT	1	0.554147192808159	0	0	180	LEFT	1209.0	1
610.12060546875	0.2	COHERENT	1	0.524903501009248	0	0	0	RIGHT	1213.0	1
n/a	0.2	RANDOM	0	0.66440144063381	1	0	0	NONE	n/a	1
612.8603515625	0.2	COHERENT	1	0.504540312249446	0	0	180	LEFT	1217.0	1
614.240234375	0.2	COHERENT	1	0.604324555355561	0	0	180	LEFT	1221.0	1
615.48046875	0.2	RANDOM	0	0.713212362978084	0	0	0	NONE	1225.0	1
617.0	0.2	COHERENT	1	0.550033987445204	0	0	180	LEFT	1228.0	1
618.2001953125	0.2	COHERENT	1	0.60795662405144	0	0	180	LEFT	1232.0	1
619.43017578125	0.2	RANDOM	0	0.532597763711237	0	0	0	NONE	1236.0	1
620.81982421875	0.2	RANDOM	0	n/a	0	1	0	NONE	1240.0	0
622.02001953125	0.2	RANDOM	0	0.678347159722762	0	0	0	NONE	1244.0	1
623.599609375	0.2	COHERENT	1	0.598837665573228	0	0	0	RIGHT	1247.0	1
624.9697265625	0.2	COHERENT	1	0.55138110974076	0	0	180	LEFT	1251.0	1
626.1494140625	0.2	RANDOM	0	0.626793698018446	0	0	0	NONE	1255.0	1
627.3994140625	0.2	COHERENT	1	0.452720323766698	0	0	0	RIGHT	1259.0	1
628.50927734375	0.2	RANDOM	0	n/a	0	1	0	NONE	1263.0	0
629.58935546875	0.2	RANDOM	0	n/a	0	1	0	NONE	1267.0	0
631.35888671875	0.2	COHERENT	1	0.698235852349171	0	0	180	LEFT	1269.0	1
632.80908203125	0.2	RANDOM	0	0.949843464572041	0	0	0	NONE	1273.0	1
634.5087890625	0.2	RANDOM	0	0.600372835637245	0	0	0	NONE	1276.0	1
635.708984375	0.2	RANDOM	0	0.948314029508765	0	0	0	NONE	1280.0	1
637.30859375	0.2	COHERENT	1	n/a	0	1	180	LEFT	1283.0	0
639.37841796875	0.2	COHERENT	1	0.574106516534812	0	0	180	LEFT	1284.0	1
640.568359375	0.2	COHERENT	1	n/a	0	1	0	RIGHT	1288.0	0
642.12841796875	0.2	RANDOM	0	0.834795055096038	0	0	0	NONE	1291.0	1
643.818359375	0.2	RANDOM	0	0.949564864105923	0	0	0	NONE	1294.0	1
645.4482421875	0.2	COHERENT	1	0.65332292178573	0	0	180	LEFT	1297.0	1
646.76806640625	0.2	RANDOM	0	0.783116932510893	0	0	0	NONE	1301.0	1
648.23779296875	0.2	RANDOM	0	n/a	0	1	0	NONE	1305.0	0
649.7177734375	0.2	RANDOM	0	n/a	0	1	0	NONE	1309.0	0
651.107421875	0.2	COHERENT	1	0.544594185066671	0	0	180	LEFT	1313.0	1
652.37744140625	0.2	RANDOM	0	0.814906966155831	0	0	0	NONE	1317.0	1
653.8076171875	0.2	COHERENT	1	0.632268815945281	0	0	180	LEFT	1321.0	1
655.12744140625	0.2	COHERENT	1	0.763046228963503	0	0	180	LEFT	1325.0	1
656.70703125	0.2	RANDOM	0	0.854815652815887	0	0	0	NONE	1328.0	1
658.296875	0.2	RANDOM	0	0.634396200650372	0	0	0	NONE	1331.0	1
659.69677734375	0.2	COHERENT	1	0.594396357610094	0	0	180	LEFT	1335.0	1
661.0966796875	0.2	RANDOM	0	0.939332409292547	0	0	0	NONE	1339.0	1
662.81689453125	0.2	RANDOM	0	0.743731640439364	0	0	0	NONE	1342.0	1
664.396484375	0.2	COHERENT	1	0.690342373713065	0	0	0	RIGHT	1345.0	1
665.99658203125	0.2	COHERENT	1	0.778615256076591	0	0	0	RIGHT	1348.0	1
667.54638671875	0.2	RANDOM	0	0.784529252745415	0	0	0	NONE	1351.0	1
669.18603515625	0.2	COHERENT	1	0.669267440749536	0	0	180	LEFT	1354.0	1
670.5859375	0.2	COHERENT	1	0.874094020262419	0	0	180	LEFT	1358.0	1
672.326171875	0.2	RANDOM	0	0.714705878799577	0	0	0	NONE	1361.0	1
673.73583984375	0.2	RANDOM	0	0.798708597794757	0	0	0	NONE	1365.0	1
675.32568359375	0.2	RANDOM	0	0.864514148557646	0	0	0	NONE	1368.0	1
676.94580078125	0.2	RANDOM	0	0.729245321745111	0	0	0	NONE	1371.0	1
678.345703125	0.2	COHERENT	1	0.623116352973739	0	0	180	LEFT	1375.0	1
679.6455078125	0.2	COHERENT	1	0.532866705219931	0	0	0	RIGHT	1379.0	1
681.0751953125	0.2	RANDOM	0	0.729734909997205	0	0	0	NONE	1383.0	1
682.42529296875	0.2	RANDOM	0	0.89356134099944	0	0	0	NONE	1387.0	1
684.18505859375	0.2	RANDOM	0	0.849287108798308	0	0	0	NONE	1390.0	1
685.8447265625	0.2	COHERENT	1	0.644082622697169	0	0	180	LEFT	1393.0	1
687.19482421875	0.2	COHERENT	1	0.58803412508496	0	0	180	LEFT	1397.0	1
688.384765625	0.2	RANDOM	0	n/a	0	1	0	NONE	1401.0	0
690.2646484375	0.2	RANDOM	0	0.769563004752854	0	0	0	NONE	1404.0	1
691.63427734375	0.2	COHERENT	1	0.828447009163938	0	0	0	RIGHT	1408.0	1
693.32421875	0.2	RANDOM	0	0.719085007251124	0	0	0	NONE	1411.0	1
694.83447265625	0.2	COHERENT	1	0.550029459809593	0	0	180	LEFT	1414.0	1
696.27392578125	0.2	COHERENT	1	0.844856667150452	0	0	180	LEFT	1418.0	1
697.84423828125	0.2	RANDOM	0	0.784632180981134	0	0	0	NONE	1421.0	1
699.49365234375	0.2	RANDOM	0	0.784359013676294	0	0	0	NONE	1424.0	1
700.9638671875	0.2	COHERENT	1	0.563236570735171	0	0	180	LEFT	1428.0	1
702.32373046875	0.2	COHERENT	1	0.669021741097822	0	0	0	RIGHT	1432.0	1
703.74365234375	0.2	COHERENT	1	n/a	0	1	0	RIGHT	1436.0	0
705.3935546875	0.2	COHERENT	1	0.788631591782178	0	0	0	RIGHT	1439.0	1
706.88330078125	0.2	RANDOM	0	0.778167623910122	0	0	0	NONE	1443.0	1
708.38330078125	0.2	RANDOM	0	n/a	0	1	0	NONE	1447.0	0
709.7529296875	0.2	COHERENT	1	0.558070539344044	0	0	180	LEFT	1451.0	1
711.06298828125	0.2	RANDOM	0	0.749812254074641	0	0	0	NONE	1455.0	1
712.6328125	0.2	COHERENT	1	0.56463832649024	0	0	180	LEFT	1458.0	1
714.052734375	0.2	RANDOM	0	0.809583674916212	0	0	0	NONE	1462.0	1
715.54248046875	0.2	RANDOM	0	1.02326902481946	0	0	0	NONE	1466.0	1
717.34228515625	0.2	RANDOM	0	n/a	0	1	0	NONE	1468.0	0
718.95263671875	0.2	RANDOM	0	n/a	0	1	0	NONE	1471.0	0
720.42236328125	0.2	RANDOM	0	0.639622298662289	0	0	0	NONE	1475.0	1
721.7421875	0.2	RANDOM	0	n/a	0	1	0	NONE	1479.0	0
723.5419921875	0.2	COHERENT	1	n/a	0	1	0	RIGHT	1480.0	0
725.23193359375	0.2	COHERENT	1	0.844070066057611	0	0	0	RIGHT	1483.0	1
726.7119140625	0.2	COHERENT	1	0.543824185297126	0	0	0	RIGHT	1487.0	1
728.03173828125	0.2	RANDOM	0	0.644782595045399	0	0	0	NONE	1491.0	1
729.46142578125	0.2	RANDOM	0	n/a	0	1	0	NONE	1495.0	0
731.3212890625	0.2	COHERENT	1	0.638345203788049	0	0	180	LEFT	1496.0	1
732.7314453125	0.2	COHERENT	1	0.593895601192344	0	0	180	LEFT	1500.0	1
734.1513671875	0.2	COHERENT	1	n/a	0	1	0	RIGHT	1504.0	0
735.4013671875	0.2	COHERENT	1	n/a	0	1	0	RIGHT	1508.0	0
737.35107421875	0.2	RANDOM	0	0.620586612447369	0	0	0	NONE	1509.0	1
738.86083984375	0.2	COHERENT	1	0.804297812126606	0	0	0	RIGHT	1512.0	1
740.3408203125	0.2	COHERENT	1	0.653116461635364	0	0	0	RIGHT	1516.0	1
741.810546875	0.2	RANDOM	0	0.575013854562712	0	0	0	NONE	1520.0	1
743.29052734375	0.2	COHERENT	1	0.839819522436301	0	0	180	LEFT	1524.0	1
744.76025390625	0.2	RANDOM	0	0.693598950554588	0	0	0	NONE	1528.0	1
746.240234375	0.2	RANDOM	0	0.589334763666557	0	0	0	NONE	1532.0	1
747.4501953125	0.2	COHERENT	1	1.0281410617863	0	0	0	RIGHT	1536.0	1
749.06005859375	0.2	RANDOM	0	0.588017523758026	0	0	0	NONE	1538.0	1
750.47998046875	0.2	COHERENT	1	0.704819637136097	0	0	0	RIGHT	1542.0	1
779.10791015625	0.2	COHERENT	1	0.649872260328266	0	0	0	RIGHT	1544.0	1
780.53759765625	0.2	RANDOM	0	0.50989952272721	0	0	0	NONE	1548.0	1
781.857421875	0.2	COHERENT	1	0.709787056275673	0	0	0	RIGHT	1552.0	1
783.37744140625	0.2	COHERENT	1	0.520452232245589	0	0	0	RIGHT	1555.0	1
784.4873046875	0.2	COHERENT	1	0.548056014693429	0	0	0	RIGHT	1559.0	1
785.88720703125	0.2	RANDOM	0	0.54829960144707	0	0	0	NONE	1563.0	1
787.29736328125	0.2	COHERENT	1	0.499103830137756	0	0	180	LEFT	1567.0	1
788.55712890625	0.2	COHERENT	1	0.544695302247419	0	0	180	LEFT	1571.0	1
789.9267578125	0.2	COHERENT	1	0.404783536796458	0	0	0	RIGHT	1575.0	1
791.07666015625	0.2	COHERENT	1	0.469768981958623	0	0	180	LEFT	1579.0	1
792.2666015625	0.2	RANDOM	0	0.557488285499858	0	0	0	NONE	1583.0	1
793.646484375	0.2	COHERENT	1	0.324303921417595	0	0	180	LEFT	1587.0	1
794.8466796875	0.2	COHERENT	1	0.534091279532731	0	0	0	RIGHT	1591.0	1
796.04638671875	0.2	COHERENT	1	0.393022552449111	0	0	180	LEFT	1595.0	1
797.09619140625	0.2	COHERENT	1	0.617947303158871	0	0	0	RIGHT	1599.0	1
798.41650390625	0.2	RANDOM	0	0.56776963876473	0	0	0	NONE	1603.0	1
799.63623046875	0.2	COHERENT	1	0.438573879531759	0	0	0	RIGHT	1607.0	1
800.81591796875	0.2	RANDOM	0	0.539370501795929	0	0	0	NONE	1611.0	1
802.13623046875	0.2	COHERENT	1	0.354246378195967	0	0	180	LEFT	1615.0	1
803.27587890625	0.2	RANDOM	0	0.684067977304949	0	0	0	NONE	1619.0	1
804.6259765625	0.2	RANDOM	0	0.542859497225436	0	0	0	NONE	1623.0	1
805.87548828125	0.2	RANDOM	0	0.748782669903449	0	0	0	NONE	1627.0	1
807.2255859375	0.2	RANDOM	0	0.598566913009563	0	0	0	NONE	1631.0	1
808.595703125	0.2	COHERENT	1	0.794308642227406	0	0	0	RIGHT	1635.0	1
810.24560546875	0.2	RANDOM	0	0.869094303994643	0	0	0	NONE	1638.0	1
811.96533203125	0.2	COHERENT	1	0.529061982717394	0	0	0	RIGHT	1641.0	1
813.1650390625	0.2	RANDOM	0	0.672787224102649	0	0	0	NONE	1645.0	1
814.6650390625	0.2	COHERENT	1	0.425119257903134	0	0	0	RIGHT	1649.0	1
815.9150390625	0.2	COHERENT	1	0.393533269667387	0	0	180	LEFT	1653.0	1
816.9150390625	0.2	RANDOM	0	0.698056859851931	0	0	0	NONE	1657.0	1
818.23486328125	0.2	COHERENT	1	0.543257627254206	0	0	180	LEFT	1661.0	1
819.58447265625	0.2	RANDOM	0	0.619964817258733	0	0	0	NONE	1665.0	1
821.00439453125	0.2	RANDOM	0	0.549771384623455	0	0	0	NONE	1669.0	1
822.154296875	0.2	RANDOM	0	0.608578419236437	0	0	0	NONE	1673.0	1
823.58447265625	0.2	COHERENT	1	0.614236151777732	0	0	180	LEFT	1677.0	1
824.8740234375	0.2	COHERENT	1	0.56328486550774	0	0	180	LEFT	1681.0	1
826.32421875	0.2	COHERENT	1	n/a	0	1	0	RIGHT	1685.0	0
828.09423828125	0.2	COHERENT	1	0.652957994414464	0	0	0	RIGHT	1687.0	1
829.57373046875	0.2	RANDOM	0	0.554488274632604	0	0	0	NONE	1691.0	1
830.77392578125	0.2	RANDOM	0	0.708507244820794	0	0	0	NONE	1695.0	1
832.2138671875	0.2	RANDOM	0	0.704398265253985	0	0	0	NONE	1699.0	1
833.693359375	0.2	RANDOM	0	0.544224428220332	0	0	0	NONE	1703.0	1
834.9833984375	0.2	COHERENT	1	0.680020573574438	0	0	180	LEFT	1707.0	1
836.283203125	0.2	COHERENT	1	0.972521482119191	0	0	0	RIGHT	1711.0	1
837.9130859375	0.2	RANDOM	0	0.67852615222364	0	0	0	NONE	1714.0	1
839.453125	0.2	COHERENT	1	0.70951087055073	0	0	0	RIGHT	1717.0	1
841.0029296875	0.2	RANDOM	0	0.739227549267525	0	0	0	NONE	1720.0	1
842.52294921875	0.2	COHERENT	1	0.674018137102394	0	0	180	LEFT	1723.0	1
844.0830078125	0.2	COHERENT	1	0.559837222474016	0	0	180	LEFT	1726.0	1
845.2529296875	0.2	COHERENT	1	0.868689533435827	0	0	0	RIGHT	1730.0	1
846.9423828125	0.2	RANDOM	0	0.824473556800513	0	0	0	NONE	1733.0	1
848.59228515625	0.2	RANDOM	0	n/a	0	1	0	NONE	1736.0	0
850.0224609375	0.2	COHERENT	1	0.698637302641146	0	0	180	LEFT	1740.0	1
851.5419921875	0.2	RANDOM	0	0.793606556981103	0	0	0	NONE	1743.0	1
853.0419921875	0.2	COHERENT	1	0.658557773225766	0	0	180	LEFT	1747.0	1
854.5322265625	0.2	RANDOM	0	0.774499635976099	0	0	0	NONE	1751.0	1
856.08203125	0.2	COHERENT	1	0.654314775663806	0	0	180	LEFT	1754.0	1
857.5615234375	0.2	COHERENT	1	n/a	0	1	180	LEFT	1758.0	0
859.181640625	0.2	COHERENT	1	0.539969356970687	0	0	180	LEFT	1761.0	1
860.51171875	0.2	COHERENT	1	0.619731493141444	0	0	0	RIGHT	1765.0	1
861.8212890625	0.2	COHERENT	1	n/a	0	1	0	RIGHT	1769.0	0
863.37109375	0.2	COHERENT	1	0.659443076761818	0	0	180	LEFT	1772.0	1
864.6513671875	0.2	COHERENT	1	0.583113793349185	0	0	0	RIGHT	1776.0	1
865.94091796875	0.2	RANDOM	0	0.648062413747539	0	0	0	NONE	1780.0	1
867.37109375	0.2	RANDOM	0	0.809803416130308	0	0	0	NONE	1784.0	1
869.02099609375	0.2	RANDOM	0	0.994586156062724	0	0	0	NONE	1787.0	1
870.74072265625	0.2	COHERENT	1	0.654085979182128	0	0	0	RIGHT	1790.0	1
872.16064453125	0.2	RANDOM	0	n/a	0	1	0	NONE	1794.0	0
873.53076171875	0.2	COHERENT	1	0.509033838941832	0	0	0	RIGHT	1798.0	1
874.66064453125	0.2	RANDOM	0	n/a	0	1	0	NONE	1802.0	0
876.59033203125	0.2	COHERENT	1	0.539757463655405	0	0	180	LEFT	1804.0	1
877.9599609375	0.2	COHERENT	1	0.424511951143359	0	0	180	LEFT	1808.0	1
879.16015625	0.2	RANDOM	0	0.814274908330844	0	0	0	NONE	1812.0	1
880.75	0.2	RANDOM	0	0.804065091691882	0	0	0	NONE	1815.0	1
882.169921875	0.2	COHERENT	1	0.867732995109691	0	0	0	RIGHT	1819.0	1
883.74951171875	0.2	RANDOM	0	0.634514220997517	0	0	0	NONE	1822.0	1
885.11962890625	0.2	COHERENT	1	0.574611800584535	0	0	180	LEFT	1826.0	1
886.41943359375	0.2	RANDOM	0	n/a	0	1	0	NONE	1830.0	0
887.8896484375	0.2	COHERENT	1	0.568235381473642	0	0	0	RIGHT	1834.0	1
889.119140625	0.2	COHERENT	1	0.653009307610773	0	0	180	LEFT	1838.0	1
890.66943359375	0.2	RANDOM	0	0.739795314682851	0	0	0	NONE	1841.0	1
892.13916015625	0.2	RANDOM	0	n/a	0	1	0	NONE	1845.0	0
894.0888671875	0.2	RANDOM	0	n/a	0	1	0	NONE	1846.0	0
895.5888671875	0.2	COHERENT	1	0.730096517101629	0	0	180	LEFT	1850.0	1
896.9287109375	0.2	COHERENT	1	0.668020831952163	0	0	0	RIGHT	1854.0	1
898.45849609375	0.2	RANDOM	0	1.11454825674082	0	0	0	NONE	1857.0	1
900.3486328125	0.2	RANDOM	0	n/a	0	1	0	NONE	1859.0	0
902.2685546875	0.2	COHERENT	1	0.664318433995504	0	0	180	LEFT	1860.0	1
903.7783203125	0.2	COHERENT	1	0.579230893683416	0	0	180	LEFT	1863.0	1
905.13818359375	0.2	RANDOM	0	0.9848722663628	0	0	0	NONE	1867.0	1
906.84814453125	0.2	RANDOM	0	0.734551709814696	0	0	0	NONE	1870.0	1
908.26806640625	0.2	COHERENT	1	0.753459414885583	0	0	0	RIGHT	1874.0	1
909.73779296875	0.2	RANDOM	0	n/a	0	1	0	NONE	1878.0	0
911.2177734375	0.2	RANDOM	0	0.859102115675341	0	0	0	NONE	1882.0	1
912.857421875	0.2	COHERENT	1	0.574986386909586	0	0	180	LEFT	1885.0	1
914.25732421875	0.2	COHERENT	1	0.754769712417328	0	0	0	RIGHT	1889.0	1
915.77734375	0.2	COHERENT	1	0.584570484410506	0	0	180	LEFT	1892.0	1
917.05712890625	0.2	COHERENT	1	0.648380857401207	0	0	180	LEFT	1896.0	1
918.4970703125	0.2	RANDOM	0	0.71424858768296	0	0	0	NONE	1900.0	1
920.0068359375	0.2	COHERENT	1	1.15901989382473	0	0	180	LEFT	1903.0	1
921.8466796875	0.2	COHERENT	1	0.54255342910983	0	0	180	LEFT	1905.0	1
923.2666015625	0.2	RANDOM	0	0.944586880483257	0	0	0	NONE	1909.0	1
924.896484375	0.2	RANDOM	0	0.748443399133976	0	0	0	NONE	1912.0	1
926.4365234375	0.2	COHERENT	1	1.09420529141426	0	0	0	RIGHT	1915.0	1
928.13623046875	0.2	RANDOM	0	0.687869379544281	0	0	0	NONE	1917.0	1
929.71630859375	0.2	RANDOM	0	0.599915544516989	0	0	0	NONE	1920.0	1
931.1162109375	0.2	RANDOM	0	0.749746754288935	0	0	0	NONE	1924.0	1
932.52587890625	0.2	RANDOM	0	0.948457404614601	0	0	0	NONE	1928.0	1
934.3759765625	0.2	COHERENT	1	0.729242303321371	0	0	0	RIGHT	1931.0	1
935.8359375	0.2	RANDOM	0	n/a	0	1	0	NONE	1935.0	0
937.87548828125	0.2	RANDOM	0	0.724771716650139	0	0	0	NONE	1936.0	1
939.32568359375	0.2	COHERENT	1	0.674553605385881	0	0	0	RIGHT	1940.0	1
940.67529296875	0.2	RANDOM	0	n/a	0	1	0	NONE	1944.0	0
942.42529296875	0.2	COHERENT	1	0.734243830647756	0	0	0	RIGHT	1947.0	1
944.06494140625	0.2	RANDOM	0	0.620081026554544	0	0	0	NONE	1950.0	1
945.384765625	0.2	RANDOM	0	0.687817462665407	0	0	0	NONE	1954.0	1
946.9150390625	0.2	COHERENT	1	0.799695320358296	0	0	180	LEFT	1957.0	1
948.45458984375	0.2	RANDOM	0	0.674421700288804	0	0	0	NONE	1960.0	1
949.71484375	0.2	COHERENT	1	0.648288191809115	0	0	0	RIGHT	1964.0	1
951.20458984375	0.2	COHERENT	1	0.675099939991924	0	0	0	RIGHT	1968.0	1
952.6044921875	0.2	RANDOM	0	0.81493926328767	0	0	0	NONE	1972.0	1
954.30419921875	0.2	RANDOM	0	0.879747527003929	0	0	0	NONE	1975.0	1
955.833984375	0.2	COHERENT	1	0.728545651236345	0	0	0	RIGHT	1978.0	1
957.44384765625	0.2	RANDOM	0	n/a	0	1	0	NONE	1981.0	0
959.14404296875	0.2	COHERENT	1	0.434050168609247	0	0	0	RIGHT	1984.0	1
960.19384765625	0.2	RANDOM	0	1.01757808962793	0	0	0	NONE	1988.0	1
961.9638671875	0.2	RANDOM	0	0.809626838370605	0	0	0	NONE	1990.0	1
963.41357421875	0.2	RANDOM	0	0.908463900261268	0	0	0	NONE	1994.0	1
965.2333984375	0.2	COHERENT	1	0.549216598428757	0	0	180	LEFT	1997.0	1
966.38330078125	0.2	RANDOM	0	n/a	0	1	0	NONE	2001.0	0
967.6630859375	0.2	COHERENT	1	0.722978471396345	0	0	180	LEFT	2005.0	1
968.9833984375	0.2	COHERENT	1	0.597823475363839	0	0	180	LEFT	2009.0	1
970.23291015625	0.2	RANDOM	0	0.808555901803629	0	0	0	NONE	2013.0	1
971.712890625	0.2	RANDOM	0	0.613360205348727	0	0	0	NONE	2017.0	1
973.20263671875	0.2	COHERENT	1	0.674234859892749	0	0	0	RIGHT	2021.0	1
974.53271484375	0.2	RANDOM	0	n/a	0	1	0	NONE	2025.0	0
975.99267578125	0.2	COHERENT	1	0.618096111425984	0	0	0	RIGHT	2029.0	1
977.302734375	0.2	RANDOM	0	0.877741181073361	0	0	0	NONE	2033.0	1
979.05224609375	0.2	COHERENT	1	0.614264826795988	0	0	180	LEFT	2036.0	1
980.54248046875	0.2	RANDOM	0	n/a	0	1	0	NONE	2040.0	0
981.72216796875	0.2	RANDOM	0	0.588240887078427	0	0	0	NONE	2044.0	1
983.19189453125	0.2	COHERENT	1	n/a	0	1	0	RIGHT	2048.0	0
984.44189453125	0.2	RANDOM	0	0.619763790273282	0	0	0	NONE	2052.0	1
985.841796875	0.2	RANDOM	0	n/a	0	1	0	NONE	2056.0	0
987.5419921875	0.2	RANDOM	0	0.584513738049282	0	0	0	NONE	2059.0	1
988.95166015625	0.2	RANDOM	0	0.784221977261041	0	0	0	NONE	2063.0	1
990.63134765625	0.2	COHERENT	1	0.529023950584815	0	0	180	LEFT	2066.0	1
992.0712890625	0.2	COHERENT	1	0.460211748428264	0	0	0	RIGHT	2070.0	1
993.13134765625	0.2	RANDOM	0	n/a	0	1	0	NONE	2074.0	0
n/a	0.2	RANDOM	0	n/a	1	1	0	NONE	n/a	0
