onset	duration	trial_type	trial_type_id	response_time	bad_epoch	outliers	event_num	response_accuracy
56.1669921875	0.2	SCRAMBLED	0	0.637079578918929	0	0	1.0	1
57.64697265625	0.2	FACES	1	0.354412089629477	0	0	9.0	1
58.8671875	0.2	SCRAMBLED	0	0.407093837948196	0	0	17.0	1
59.95703125	0.2	FACES	1	0.486189204428229	0	0	25.0	1
61.38671875	0.2	SCRAMBLED	0	0.401900942593784	0	0	33.0	1
62.5166015625	0.2	FACES	1	0.593696083415125	0	0	41.0	1
63.87646484375	0.2	FACES	1	0.619610152527457	0	0	49.0	1
65.306640625	0.2	SCRAMBLED	0	0.436392766892823	0	0	57.0	1
66.65625	0.2	SCRAMBLED	0	0.463207835342473	0	0	65.0	1
68.04638671875	0.2	FACES	1	0.607965377479559	0	0	73.0	1
69.4462890625	0.2	FACES	1	0.709856178171322	0	0	81.0	1
71.10595703125	0.2	SCRAMBLED	0	0.552633151703048	0	0	87.0	1
72.326171875	0.2	FACES	1	0.527498741317686	0	0	95.0	1
73.7158203125	0.2	FACES	1	0.561344623041805	0	0	103.0	1
75.015625	0.2	FACES	1	0.586893462943408	0	0	111.0	1
76.33544921875	0.2	FACES	1	0.576918479633605	0	0	119.0	1
77.78564453125	0.2	FACES	1	0.468836892858235	0	0	127.0	1
79.0654296875	0.2	SCRAMBLED	0	0.548356951487222	0	0	135.0	1
80.455078125	0.2	SCRAMBLED	0	0.563441521670029	0	0	143.0	1
81.80517578125	0.2	FACES	1	0.537220177069685	0	0	151.0	1
83.0849609375	0.2	FACES	1	0.532080104123452	0	0	159.0	1
84.40478515625	0.2	FACES	1	0.727905745508906	0	0	167.0	1
85.90478515625	0.2	SCRAMBLED	0	0.566720434846502	0	0	174.0	1
87.24462890625	0.2	FACES	1	0.646655828513758	0	0	182.0	1
88.8544921875	0.2	FACES	1	0.512367687417282	0	0	188.0	1
90.32470703125	0.2	SCRAMBLED	0	n/a	0	1	196.0	0
92.4443359375	0.2	SCRAMBLED	0	0.737850544584944	0	0	198.0	1
94.1142578125	0.2	SCRAMBLED	0	0.401654337412765	0	0	204.0	1
95.4443359375	0.2	SCRAMBLED	0	0.580443997987459	0	0	212.0	1
96.7939453125	0.2	FACES	1	0.53936174836781	0	0	220.0	1
98.1640625	0.2	SCRAMBLED	0	0.531144996602961	0	0	228.0	1
99.5537109375	0.2	SCRAMBLED	0	0.610940939117427	0	0	236.0	1
100.91357421875	0.2	FACES	1	0.509848511374003	0	0	244.0	1
102.28369140625	0.2	FACES	1	0.599425654421793	0	0	252.0	1
103.7333984375	0.2	FACES	1	0.570478975474543	0	0	260.0	1
105.00341796875	0.2	SCRAMBLED	0	0.54033941565649	0	0	268.0	1
106.3232421875	0.2	FACES	1	0.474906036481116	0	0	276.0	1
107.4931640625	0.2	SCRAMBLED	0	0.628957907483709	0	0	284.0	1
108.953125	0.2	FACES	1	0.492798042127106	0	0	292.0	1
110.3427734375	0.2	FACES	1	0.421609133507445	0	0	300.0	1
111.5126953125	0.2	SCRAMBLED	0	0.547442671089811	0	0	308.0	1
112.7626953125	0.2	SCRAMBLED	0	0.545357846149273	0	0	316.0	1
114.04248046875	0.2	FACES	1	0.58716964866835	0	0	324.0	1
115.49267578125	0.2	FACES	1	0.633931363470765	0	0	332.0	1
117.0625	0.2	SCRAMBLED	0	0.533726955847669	0	0	338.0	1
118.40234375	0.2	SCRAMBLED	0	0.647606631835515	0	0	346.0	1
119.912109375	0.2	SCRAMBLED	0	0.636378097355191	0	0	352.0	1
121.23193359375	0.2	FACES	1	0.676151256811863	0	0	360.0	1
122.6220703125	0.2	FACES	1	0.689957524748024	0	0	368.0	1
124.1220703125	0.2	SCRAMBLED	0	0.59684007307078	0	0	375.0	1
125.501953125	0.2	SCRAMBLED	0	0.513672853630851	0	0	383.0	1
126.94189453125	0.2	FACES	1	0.620679579882562	0	0	391.0	1
128.24169921875	0.2	FACES	1	0.764223414029402	0	0	399.0	1
129.70166015625	0.2	FACES	1	0.499117413040949	0	0	407.0	1
131.17138671875	0.2	SCRAMBLED	0	0.555024648445396	0	0	415.0	1
132.42138671875	0.2	SCRAMBLED	0	0.600654152687639	0	0	423.0	1
133.81103515625	0.2	FACES	1	0.684571450303338	0	0	431.0	1
135.1611328125	0.2	FACES	1	0.677560558626283	0	0	439.0	1
136.53076171875	0.2	SCRAMBLED	0	0.566139690210548	0	0	447.0	1
137.86083984375	0.2	SCRAMBLED	0	0.544086788118875	0	0	455.0	1
139.28076171875	0.2	FACES	1	0.71687763432783	0	0	463.0	1
140.86083984375	0.2	SCRAMBLED	0	0.53769557873602	0	0	469.0	1
142.33056640625	0.2	SCRAMBLED	0	0.423502892252145	0	0	477.0	1
143.6806640625	0.2	FACES	1	0.628398291813937	0	0	485.0	1
145.2802734375	0.2	SCRAMBLED	0	0.858106941530423	0	0	491.0	1
146.80029296875	0.2	SCRAMBLED	0	0.646254378221784	0	0	497.0	1
148.240234375	0.2	FACES	1	0.576676703931298	0	0	505.0	1
149.77001953125	0.2	FACES	1	0.441599245150428	0	0	511.0	1
150.919921875	0.2	FACES	1	0.580461504840059	0	0	519.0	1
152.15966796875	0.2	SCRAMBLED	0	0.587203153165319	0	0	527.0	1
153.53955078125	0.2	FACES	1	0.585113196906605	0	0	535.0	1
154.90966796875	0.2	SCRAMBLED	0	0.710863727847027	0	0	543.0	1
156.3896484375	0.2	SCRAMBLED	0	0.473414633557695	0	0	551.0	1
157.6494140625	0.2	SCRAMBLED	0	0.497569263759942	0	0	559.0	1
159.05908203125	0.2	FACES	1	0.571448794864409	0	0	567.0	1
160.39892578125	0.2	SCRAMBLED	0	0.463189724803669	0	0	575.0	1
161.59912109375	0.2	SCRAMBLED	0	0.496078162675985	0	0	583.0	1
162.97900390625	0.2	FACES	1	0.431827099884686	0	0	591.0	1
164.26904296875	0.2	SCRAMBLED	0	0.468626508758462	0	0	599.0	1
165.478515625	0.2	SCRAMBLED	0	0.536581780554116	0	0	607.0	1
166.888671875	0.2	FACES	1	0.462867960886797	0	0	615.0	1
168.24853515625	0.2	SCRAMBLED	0	0.456902952861128	0	0	623.0	1
169.49853515625	0.2	FACES	1	0.539133555568696	0	0	631.0	1
170.98828125	0.2	FACES	1	0.583828254129912	0	0	639.0	1
172.46826171875	0.2	FACES	1	0.419408702960936	0	0	647.0	1
173.68798828125	0.2	FACES	1	0.43345161527759	0	0	655.0	1
175.0078125	0.2	SCRAMBLED	0	0.482351581111288	0	0	663.0	1
176.4580078125	0.2	SCRAMBLED	0	0.857089431050554	0	0	671.0	1
178.2578125	0.2	SCRAMBLED	0	0.502179301583965	0	0	676.0	1
179.69775390625	0.2	SCRAMBLED	0	0.441642710447923	0	0	684.0	1
180.99755859375	0.2	SCRAMBLED	0	0.487312359720818	0	0	692.0	1
182.29736328125	0.2	SCRAMBLED	0	0.407379078944359	0	0	700.0	1
183.46728515625	0.2	FACES	1	0.480092593152222	0	0	708.0	1
184.6474609375	0.2	FACES	1	0.451023668058042	0	0	716.0	1
185.84716796875	0.2	FACES	1	0.454774360790907	0	0	724.0	1
187.01708984375	0.2	SCRAMBLED	0	0.465826921197731	0	0	732.0	1
188.4169921875	0.2	SCRAMBLED	0	0.408641685389739	0	0	740.0	1
189.76708984375	0.2	SCRAMBLED	0	0.451314040376019	0	0	748.0	1
191.15673828125	0.2	FACES	1	n/a	0	1	756.0	0
192.63671875	0.2	SCRAMBLED	0	0.579070917250647	0	0	764.0	1
194.13671875	0.2	SCRAMBLED	0	0.540864319460525	0	0	771.0	1
195.63623046875	0.2	FACES	1	0.466686568139266	0	0	778.0	1
196.9765625	0.2	SCRAMBLED	0	0.626516606764199	0	0	786.0	1
198.29638671875	0.2	SCRAMBLED	0	0.569888873727905	0	0	794.0	1
199.74609375	0.2	SCRAMBLED	0	0.412973122751282	0	0	802.0	1
200.90625	0.2	FACES	1	0.590940564830817	0	0	810.0	1
202.31591796875	0.2	SCRAMBLED	0	0.749800784065883	0	0	818.0	1
203.74560546875	0.2	FACES	1	0.617610447126935	0	0	826.0	1
205.1455078125	0.2	SCRAMBLED	0	0.573440652366116	0	0	834.0	1
206.53564453125	0.2	FACES	1	0.503333546632348	0	0	842.0	1
207.765625	0.2	SCRAMBLED	0	0.613106355955097	0	0	850.0	1
209.26513671875	0.2	FACES	1	0.608873319190025	0	0	857.0	1
210.5654296875	0.2	SCRAMBLED	0	0.672679466391855	0	0	865.0	1
212.1650390625	0.2	FACES	1	0.888620182144223	0	0	871.0	1
214.0048828125	0.2	FACES	1	0.652316277632053	0	0	876.0	1
215.43505859375	0.2	FACES	1	0.718109151013778	0	0	884.0	1
216.98486328125	0.2	FACES	1	0.398778081900673	0	0	890.0	1
218.224609375	0.2	SCRAMBLED	0	0.543829618458403	0	0	898.0	1
219.50439453125	0.2	FACES	1	0.536645771131589	0	0	906.0	1
220.82470703125	0.2	SCRAMBLED	0	0.583568971575005	0	0	914.0	1
222.2744140625	0.2	SCRAMBLED	0	0.477301155333407	0	0	922.0	1
223.6142578125	0.2	SCRAMBLED	0	0.467160762429558	0	0	930.0	1
224.7939453125	0.2	FACES	1	0.619864907450392	0	0	938.0	1
226.2841796875	0.2	SCRAMBLED	0	0.418426206193544	0	0	946.0	1
227.583984375	0.2	FACES	1	0.464647019547556	0	0	954.0	1
228.763671875	0.2	SCRAMBLED	0	1.05433946636913	0	0	962.0	1
230.75390625	0.2	SCRAMBLED	0	0.490774793026503	0	0	966.0	1
232.18359375	0.2	SCRAMBLED	0	0.471943755910615	0	0	974.0	1
233.5234375	0.2	SCRAMBLED	0	0.605812336176314	0	0	982.0	1
235.0234375	0.2	SCRAMBLED	0	0.428605838595104	0	0	989.0	1
236.38330078125	0.2	FACES	1	0.639465038810158	0	0	997.0	1
237.89306640625	0.2	FACES	1	0.537146527545701	0	0	1003.0	1
239.2431640625	0.2	FACES	1	0.630093740153825	0	0	1011.0	1
240.57275390625	0.2	SCRAMBLED	0	0.566882524173707	0	0	1019.0	1
242.07275390625	0.2	FACES	1	0.478656427370879	0	0	1026.0	1
243.2626953125	0.2	SCRAMBLED	0	1.07708570027899	0	0	1034.0	1
245.142578125	0.2	FACES	1	0.532368061700254	0	0	1038.0	1
246.34228515625	0.2	FACES	1	0.650190402135195	0	0	1046.0	1
247.6826171875	0.2	FACES	1	0.596917042861605	0	0	1054.0	1
248.982421875	0.2	SCRAMBLED	0	0.726820924191998	0	0	1062.0	1
250.60205078125	0.2	SCRAMBLED	0	0.603591380349826	0	0	1068.0	1
251.93212890625	0.2	FACES	1	0.586421683383378	0	0	1076.0	1
253.3818359375	0.2	FACES	1	0.53132972410458	0	0	1084.0	1
254.82177734375	0.2	SCRAMBLED	0	0.497067903655989	0	0	1092.0	1
255.98193359375	0.2	SCRAMBLED	0	0.616623724563397	0	0	1100.0	1
257.5517578125	0.2	FACES	1	0.522648436999589	0	0	1106.0	1
258.92138671875	0.2	FACES	1	0.406593685216649	0	0	1114.0	1
260.20166015625	0.2	FACES	1	0.39542280261594	0	0	1122.0	1
261.361328125	0.2	FACES	1	0.439042338817671	0	0	1130.0	1
262.7412109375	0.2	FACES	1	0.365098817143007	0	0	1138.0	1
n/a	0.2	SCRAMBLED	0	0.584987932346849	1	0	n/a	1
276.5703125	0.2	SCRAMBLED	0	0.51829405962053	0	0	1146.0	1
278.05029296875	0.2	FACES	1	0.51405589154092	0	0	1154.0	1
279.4697265625	0.2	FACES	1	0.409887992351287	0	0	1162.0	1
280.56982421875	0.2	FACES	1	0.39581338658536	0	0	1170.0	1
281.77001953125	0.2	SCRAMBLED	0	0.465591182339267	0	0	1178.0	1
283.10986328125	0.2	FACES	1	0.500405374241382	0	0	1186.0	1
284.359375	0.2	FACES	1	0.339334159976715	0	0	1194.0	1
285.53955078125	0.2	SCRAMBLED	0	0.539152269793703	0	0	1202.0	1
286.78955078125	0.2	SCRAMBLED	0	0.362881785262289	0	0	1210.0	1
288.12939453125	0.2	FACES	1	0.406827613020141	0	0	1218.0	1
289.37939453125	0.2	SCRAMBLED	0	0.466613220451109	0	0	1226.0	1
290.54931640625	0.2	FACES	1	0.367626444767666	0	0	1234.0	1
291.62890625	0.2	FACES	1	0.430391235950083	0	0	1242.0	1
292.869140625	0.2	SCRAMBLED	0	0.448170050720364	0	0	1250.0	1
294.14892578125	0.2	SCRAMBLED	0	0.403100162151532	0	0	1258.0	1
295.298828125	0.2	SCRAMBLED	0	0.362868504202197	0	0	1266.0	1
296.41845703125	0.2	SCRAMBLED	0	0.456777990140836	0	0	1274.0	1
297.78857421875	0.2	FACES	1	0.573548711920012	0	0	1282.0	1
299.2685546875	0.2	FACES	1	0.363381032468169	0	0	1290.0	1
300.33837890625	0.2	SCRAMBLED	0	0.577293367801758	0	0	1298.0	1
301.658203125	0.2	SCRAMBLED	0	0.552120019750873	0	0	1306.0	1
303.08837890625	0.2	FACES	1	0.607879050574411	0	0	1314.0	1
304.38818359375	0.2	SCRAMBLED	0	0.991646513659362	0	0	1322.0	1
306.30810546875	0.2	FACES	1	0.477368466166809	0	0	1327.0	1
307.587890625	0.2	SCRAMBLED	0	0.51935111144121	0	0	1335.0	1
308.77783203125	0.2	FACES	1	0.471143571903667	0	0	1343.0	1
310.20751953125	0.2	FACES	1	0.701666894052323	0	0	1351.0	1
311.8076171875	0.2	FACES	1	0.541819348574791	0	0	1357.0	1
313.04736328125	0.2	SCRAMBLED	0	0.650598191117751	0	0	1365.0	1
314.37744140625	0.2	SCRAMBLED	0	0.60240876212265	0	0	1373.0	1
315.79736328125	0.2	SCRAMBLED	0	0.529143781986932	0	0	1381.0	1
317.0869140625	0.2	SCRAMBLED	0	0.418089953840536	0	0	1389.0	1
318.287109375	0.2	FACES	1	0.437853080060449	0	0	1397.0	1
319.68701171875	0.2	SCRAMBLED	0	0.368816609054193	0	0	1405.0	1
320.9169921875	0.2	FACES	1	0.50320647101762	0	0	1413.0	1
322.31689453125	0.2	FACES	1	0.482349468213215	0	0	1421.0	1
323.75634765625	0.2	FACES	1	0.583152127321227	0	0	1429.0	1
325.2763671875	0.2	SCRAMBLED	0	0.465052695632039	0	0	1435.0	1
326.40625	0.2	SCRAMBLED	0	0.53699953033356	0	0	1443.0	1
327.826171875	0.2	FACES	1	0.486638345806568	0	0	1451.0	1
329.22607421875	0.2	SCRAMBLED	0	0.358595624253212	0	0	1459.0	1
330.24609375	0.2	SCRAMBLED	0	0.637362405173917	0	0	1467.0	1
331.74609375	0.2	SCRAMBLED	0	0.398148740652687	0	0	1474.0	1
332.9658203125	0.2	SCRAMBLED	0	0.369826271631609	0	0	1482.0	1
334.07568359375	0.2	FACES	1	0.450883009536483	0	0	1490.0	1
335.44580078125	0.2	SCRAMBLED	0	0.408771477592381	0	0	1498.0	1
336.515625	0.2	FACES	1	0.571480488310044	0	0	1506.0	1
337.79541015625	0.2	SCRAMBLED	0	0.557393808852794	0	0	1514.0	1
339.13525390625	0.2	FACES	1	0.518275949081726	0	0	1522.0	1
340.4150390625	0.2	SCRAMBLED	0	0.447499357076595	0	0	1530.0	1
341.6650390625	0.2	SCRAMBLED	0	0.447910164479254	0	0	1538.0	1
342.8349609375	0.2	SCRAMBLED	0	0.447788823865267	0	0	1546.0	1
344.02490234375	0.2	FACES	1	0.547492776913714	0	0	1554.0	1
345.52490234375	0.2	FACES	1	0.433357742313092	0	0	1561.0	1
346.6845703125	0.2	FACES	1	0.497324167790794	0	0	1569.0	1
348.0947265625	0.2	FACES	1	0.582071229957364	0	0	1577.0	1
349.5244140625	0.2	FACES	1	0.383662421958434	0	0	1585.0	1
350.74462890625	0.2	SCRAMBLED	0	0.474813370892662	0	0	1593.0	1
352.064453125	0.2	SCRAMBLED	0	0.523579016884469	0	0	1601.0	1
353.51416015625	0.2	FACES	1	0.50832269842067	0	0	1609.0	1
354.72412109375	0.2	FACES	1	0.422296126638685	0	0	1617.0	1
355.9140625	0.2	SCRAMBLED	0	0.51708155900269	0	0	1625.0	1
357.19384765625	0.2	SCRAMBLED	0	0.57687652354798	0	0	1633.0	1
358.48388671875	0.2	SCRAMBLED	0	0.577431007899577	0	0	1641.0	1
360.013671875	0.2	SCRAMBLED	0	0.399642860160384	0	0	1647.0	1
361.103515625	0.2	FACES	1	0.567397769023955	0	0	1655.0	1
362.5537109375	0.2	FACES	1	0.787141698066989	0	0	1663.0	1
364.1533203125	0.2	SCRAMBLED	0	0.589037750818534	0	0	1669.0	1
365.4033203125	0.2	SCRAMBLED	0	0.567855965669878	0	0	1677.0	1
366.92333984375	0.2	FACES	1	0.453642150230735	0	0	1683.0	1
368.14306640625	0.2	SCRAMBLED	0	0.86740972197731	0	0	1691.0	1
369.90283203125	0.2	SCRAMBLED	0	0.423310316851712	0	0	1696.0	1
371.0029296875	0.2	FACES	1	0.616860368947528	0	0	1704.0	1
372.32275390625	0.2	FACES	1	0.631896342514665	0	0	1712.0	1
373.6728515625	0.2	FACES	1	n/a	0	1	1720.0	0
375.28271484375	0.2	FACES	1	n/a	0	1	1726.0	0
376.49267578125	0.2	SCRAMBLED	0	0.792394358206366	0	0	1734.0	1
377.9921875	0.2	SCRAMBLED	0	0.51822373035975	0	0	1741.0	1
379.31201171875	0.2	SCRAMBLED	0	0.434099067064381	0	0	1749.0	1
380.662109375	0.2	FACES	1	0.428976500970748	0	0	1757.0	1
381.76220703125	0.2	FACES	1	0.541860700974212	0	0	1765.0	1
383.03173828125	0.2	FACES	1	0.307648261932627	0	0	1773.0	1
384.001953125	0.2	FACES	1	0.401458743588591	0	0	1783.0	1
385.07177734375	0.2	SCRAMBLED	0	0.537118456206372	0	0	1791.0	1
386.3818359375	0.2	SCRAMBLED	0	n/a	0	1	1799.0	0
387.44140625	0.2	FACES	1	0.65105608592421	0	0	1807.0	1
388.79150390625	0.2	SCRAMBLED	0	0.33786267864707	0	0	1815.0	1
389.87158203125	0.2	FACES	1	0.516772170623881	0	0	1823.0	1
391.04150390625	0.2	FACES	1	0.622578469949076	0	0	1831.0	1
392.34130859375	0.2	FACES	1	0.646458423634613	0	0	1839.0	1
393.9111328125	0.2	SCRAMBLED	0	0.748158459977276	0	0	1845.0	1
395.31103515625	0.2	SCRAMBLED	0	0.498058248322195	0	0	1853.0	1
396.5908203125	0.2	FACES	1	0.45887639798093	0	0	1861.0	1
397.880859375	0.2	SCRAMBLED	0	0.683700635196146	0	0	1869.0	1
399.40087890625	0.2	FACES	1	0.45881633136014	0	0	1875.0	1
400.55078125	0.2	SCRAMBLED	0	0.632335824939219	0	0	1883.0	1
402.00048828125	0.2	SCRAMBLED	0	0.858076153610455	0	0	1891.0	1
403.63037109375	0.2	FACES	1	0.717881260057766	0	0	1897.0	1
405.2001953125	0.2	FACES	1	0.382777118418744	0	0	1903.0	1
406.38037109375	0.2	SCRAMBLED	0	0.631601140721614	0	0	1911.0	1
407.8701171875	0.2	FACES	1	0.933396076288773	0	0	1919.0	1
409.58984375	0.2	FACES	1	n/a	0	1	1924.0	0
411.68994140625	0.2	FACES	1	0.59390375093426	0	0	1926.0	1
412.98974609375	0.2	SCRAMBLED	0	0.45779006745579	0	0	1934.0	1
414.359375	0.2	FACES	1	0.483330455768737	0	0	1942.0	1
415.4892578125	0.2	FACES	1	0.482456320394704	0	0	1950.0	1
416.6591796875	0.2	SCRAMBLED	0	0.593320591564407	0	0	1958.0	1
418.12939453125	0.2	SCRAMBLED	0	0.699087047702051	0	0	1966.0	1
419.62890625	0.2	SCRAMBLED	0	0.53065148440146	0	0	1973.0	1
420.8291015625	0.2	SCRAMBLED	0	0.596670135841123	0	0	1981.0	1
422.19873046875	0.2	FACES	1	0.41857954209263	0	0	1989.0	1
423.36865234375	0.2	SCRAMBLED	0	0.521892925658904	0	0	1997.0	1
424.74853515625	0.2	SCRAMBLED	0	0.497298813035741	0	0	2005.0	1
425.94873046875	0.2	FACES	1	0.801834175072145	0	0	2013.0	1
427.4384765625	0.2	FACES	1	0.506856650248665	0	0	2021.0	1
428.818359375	0.2	FACES	1	0.597627881536027	0	0	2029.0	1
430.38818359375	0.2	SCRAMBLED	0	0.528532551281387	0	0	2035.0	1
431.58837890625	0.2	SCRAMBLED	0	0.582367940962286	0	0	2043.0	1
433.00830078125	0.2	FACES	1	0.457031839538104	0	0	2051.0	1
434.30810546875	0.2	SCRAMBLED	0	n/a	0	1	2059.0	0
436.15771484375	0.2	FACES	1	0.542803354554053	0	0	2061.0	1
437.57763671875	0.2	FACES	1	0.718554066599609	0	0	2069.0	1
439.2578125	0.2	SCRAMBLED	0	0.438395792560186	0	0	2075.0	1
440.357421875	0.2	SCRAMBLED	0	n/a	0	1	2083.0	0
442.24755859375	0.2	SCRAMBLED	0	n/a	0	1	2085.0	0
443.947265625	0.2	FACES	1	n/a	0	1	2090.0	0
446.02734375	0.2	FACES	1	0.658538455314556	0	0	2092.0	1
447.4169921875	0.2	FACES	1	0.586483259219676	0	0	2100.0	1
448.89697265625	0.2	SCRAMBLED	0	0.52210391344488	0	0	2108.0	1
450.14697265625	0.2	FACES	1	0.717902087180846	0	0	2116.0	1
451.7568359375	0.2	SCRAMBLED	0	0.69482352486375	0	0	2122.0	1
453.15673828125	0.2	SCRAMBLED	0	0.447592324511788	0	0	2130.0	1
454.556640625	0.2	FACES	1	0.643366652700934	0	0	2138.0	1
456.05615234375	0.2	FACES	1	0.90309684188469	0	0	2145.0	1
457.72607421875	0.2	SCRAMBLED	0	0.447058667279634	0	0	2151.0	1
459.09619140625	0.2	SCRAMBLED	0	0.370329442786897	0	0	2159.0	1
460.14599609375	0.2	FACES	1	0.576753673722123	0	0	2167.0	1
461.57568359375	0.2	FACES	1	0.423546357546002	0	0	2175.0	1
462.86572265625	0.2	SCRAMBLED	0	0.418830071223056	0	0	2183.0	1
464.015625	0.2	SCRAMBLED	0	0.532140774434083	0	0	2191.0	1
465.275390625	0.2	FACES	1	0.686039007687214	0	0	2199.0	1
466.845703125	0.2	FACES	1	0.598456136878667	0	0	2205.0	1
468.2353515625	0.2	SCRAMBLED	0	0.872614087344118	0	0	2213.0	1
469.8154296875	0.2	FACES	1	0.432587742547184	0	0	2219.0	1
471.05517578125	0.2	FACES	1	0.763319698107807	0	0	2227.0	1
472.60498046875	0.2	FACES	1	1.13806509411006	0	0	2233.0	1
474.40478515625	0.2	SCRAMBLED	0	0.576875919865415	0	0	2237.0	1
475.85498046875	0.2	FACES	1	0.907619949120999	0	0	2245.0	1
477.474609375	0.2	SCRAMBLED	0	n/a	0	1	2251.0	0
547.1591796875	0.2	FACES	1	0.841185660799965	0	0	2253.0	1
548.97900390625	0.2	SCRAMBLED	0	0.388203337890445	0	0	2258.0	1
n/a	0.2	SCRAMBLED	0	0.437959932241938	1	0	n/a	1
n/a	0.2	SCRAMBLED	0	0.297044239217939	1	0	n/a	1
552.47900390625	0.2	SCRAMBLED	0	0.319079634457012	0	0	2266.0	1
553.61865234375	0.2	SCRAMBLED	0	0.357770689181052	0	0	2274.0	1
554.69873046875	0.2	SCRAMBLED	0	0.272566939573153	0	0	2282.0	1
n/a	0.2	FACES	1	0.556366639419139	1	0	n/a	1
n/a	0.2	SCRAMBLED	0	0.462297478890832	1	0	n/a	1
558.5185546875	0.2	FACES	1	0.592062814597739	0	0	2290.0	1
560.04833984375	0.2	SCRAMBLED	0	0.36384375675334	0	0	2296.0	1
561.1083984375	0.2	SCRAMBLED	0	0.462902370909433	0	0	2304.0	1
n/a	0.2	FACES	1	0.497615143791336	1	0	n/a	1
563.8681640625	0.2	FACES	1	0.698358400335565	0	0	2312.0	1
565.30810546875	0.2	SCRAMBLED	0	0.652007191089069	0	0	2320.0	1
566.82763671875	0.2	FACES	1	0.513000650771573	0	0	2326.0	1
568.03759765625	0.2	FACES	1	0.480851122913009	0	0	2334.0	1
569.4775390625	0.2	FACES	1	0.543602029349131	0	0	2342.0	1
570.95751953125	0.2	SCRAMBLED	0	0.483494054307812	0	0	2350.0	1
n/a	0.2	FACES	1	0.61332851190673	1	0	n/a	1
573.8271484375	0.2	SCRAMBLED	0	0.448208988382248	0	0	2357.0	1
574.92724609375	0.2	FACES	1	0.44203721836675	0	0	2365.0	1
576.02685546875	0.2	FACES	1	0.702974776846531	0	0	2373.0	1
577.4169921875	0.2	FACES	1	0.486775985908025	0	0	2381.0	1
578.86669921875	0.2	FACES	1	0.472536876077356	0	0	2389.0	1
579.99658203125	0.2	SCRAMBLED	0	0.547343666803499	0	0	2397.0	1
581.4365234375	0.2	FACES	1	0.508121067749016	0	0	2405.0	1
582.83642578125	0.2	FACES	1	0.404029232828179	0	0	2413.0	1
584.1064453125	0.2	SCRAMBLED	0	0.46883930759941	0	0	2421.0	1
585.2861328125	0.2	SCRAMBLED	0	0.407619949120999	0	0	2429.0	1
n/a	0.2	SCRAMBLED	0	0.408538757157658	1	0	n/a	1
n/a	0.2	FACES	1	0.442338457007281	1	0	n/a	1
588.84619140625	0.2	FACES	1	0.50854726910984	0	0	2437.0	1
590.2958984375	0.2	SCRAMBLED	0	0.824069691771001	0	0	2445.0	1
592.0458984375	0.2	FACES	1	0.517793906892621	0	0	2450.0	1
593.24560546875	0.2	SCRAMBLED	0	0.4232113125654	0	0	2458.0	1
594.61572265625	0.2	FACES	1	0.687448007662169	0	0	2466.0	1
596.12548828125	0.2	SCRAMBLED	0	0.563039769534953	0	0	2472.0	1
597.63525390625	0.2	FACES	1	0.558082311195903	0	0	2478.0	1
599.13525390625	0.2	FACES	1	0.583854212571168	0	0	2485.0	1
600.63525390625	0.2	FACES	1	0.393774139840389	0	0	2492.0	1
601.955078125	0.2	FACES	1	0.567493151196686	0	0	2500.0	1
603.18505859375	0.2	FACES	1	0.622358125052415	0	0	2508.0	1
604.48486328125	0.2	SCRAMBLED	0	0.583238454230013	0	0	2516.0	1
606.03466796875	0.2	SCRAMBLED	0	0.748897068147926	0	0	2522.0	1
607.48486328125	0.2	FACES	1	0.471789514478587	0	0	2530.0	1
608.82470703125	0.2	SCRAMBLED	0	0.568559258288587	0	0	2538.0	1
610.1044921875	0.2	FACES	1	0.382531116923928	0	0	2546.0	1
611.39453125	0.2	SCRAMBLED	0	0.448335460314411	0	0	2554.0	1
612.744140625	0.2	FACES	1	0.543058109476988	0	0	2562.0	1
613.9443359375	0.2	FACES	1	0.632016475759883	0	0	2570.0	1
615.47412109375	0.2	SCRAMBLED	0	0.732788648798305	0	0	2576.0	1
617.013671875	0.2	SCRAMBLED	0	0.539599600117072	0	0	2582.0	1
618.3837890625	0.2	FACES	1	0.627211749633716	0	0	2590.0	1
619.8134765625	0.2	FACES	1	0.501239968270966	0	0	2598.0	1
620.9833984375	0.2	FACES	1	0.562080212785077	0	0	2606.0	1
622.2333984375	0.2	SCRAMBLED	0	0.443028468562261	0	0	2614.0	1
623.603515625	0.2	FACES	1	0.46676021766325	0	0	2622.0	1
625.033203125	0.2	FACES	1	0.532571805269981	0	0	2630.0	1
626.3330078125	0.2	FACES	1	0.658150889768876	0	0	2638.0	1
627.68310546875	0.2	FACES	1	0.707126316185168	0	0	2646.0	1
629.07275390625	0.2	FACES	1	0.78707287801808	0	0	2654.0	1
630.623046875	0.2	FACES	1	0.611708825988899	0	0	2660.0	1
632.0126953125	0.2	FACES	1	0.53959235590446	0	0	2668.0	1
633.36279296875	0.2	FACES	1	0.523571470828756	0	0	2676.0	1
634.5927734375	0.2	SCRAMBLED	0	0.528343597987259	0	0	2684.0	1
636.08251953125	0.2	SCRAMBLED	0	0.409230277924507	0	0	2692.0	1
637.38232421875	0.2	SCRAMBLED	0	0.433996742518502	0	0	2700.0	1
638.5322265625	0.2	SCRAMBLED	0	0.857809928678762	0	0	2708.0	1
640.251953125	0.2	SCRAMBLED	0	0.737537835935655	0	0	2713.0	1
641.662109375	0.2	SCRAMBLED	0	0.612349939088745	0	0	2721.0	1
643.08203125	0.2	FACES	1	0.50225778058666	0	0	2729.0	1
644.251953125	0.2	SCRAMBLED	0	0.607039627066115	0	0	2737.0	1
645.521484375	0.2	SCRAMBLED	0	0.647844181745313	0	0	2745.0	1
646.8818359375	0.2	FACES	1	0.671723833591386	0	0	2753.0	1
648.3515625	0.2	FACES	1	0.581534252462006	0	0	2761.0	1
649.771484375	0.2	SCRAMBLED	0	0.604257546361623	0	0	2769.0	1
651.12109375	0.2	SCRAMBLED	0	0.532975368456391	0	0	2777.0	1
652.541015625	0.2	SCRAMBLED	0	0.812875265470211	0	0	2785.0	1
654.1611328125	0.2	FACES	1	0.452669916099694	0	0	2791.0	1
655.5107421875	0.2	FACES	1	0.503710245855473	0	0	2799.0	1
656.6806640625	0.2	SCRAMBLED	0	0.537516888078244	0	0	2807.0	1
658.16064453125	0.2	SCRAMBLED	0	0.523323356439505	0	0	2815.0	1
659.5107421875	0.2	SCRAMBLED	0	0.513051662124781	0	0	2823.0	1
660.88037109375	0.2	FACES	1	0.634042743287864	0	0	2831.0	1
662.26025390625	0.2	SCRAMBLED	0	0.462773182396631	0	0	2839.0	1
663.63037109375	0.2	FACES	1	0.602714528395154	0	0	2847.0	1
665.1201171875	0.2	SCRAMBLED	0	0.423333860551793	0	0	2855.0	1
666.5	0.2	SCRAMBLED	0	0.868276311291993	0	0	2863.0	1
668.31982421875	0.2	FACES	1	0.592041383788455	0	0	2868.0	1
669.599609375	0.2	FACES	1	0.707818742477684	0	0	2876.0	1
671.01953125	0.2	SCRAMBLED	0	0.537638832378434	0	0	2884.0	1
672.48974609375	0.2	SCRAMBLED	0	0.402526963574928	0	0	2892.0	1
673.75927734375	0.2	FACES	1	0.422298843219323	0	0	2900.0	1
675.03955078125	0.2	SCRAMBLED	0	0.467088923956908	0	0	2908.0	1
676.439453125	0.2	FACES	1	0.539012818637275	0	0	2916.0	1
677.708984375	0.2	SCRAMBLED	0	0.381805789820646	0	0	2924.0	1
678.958984375	0.2	SCRAMBLED	0	0.337598264770349	0	0	2932.0	1
680.17919921875	0.2	FACES	1	0.496392078690405	0	0	2940.0	1
681.4287109375	0.2	FACES	1	0.511357119314198	0	0	2948.0	1
682.90869140625	0.2	SCRAMBLED	0	0.37916376395151	0	0	2956.0	1
684.0986328125	0.2	FACES	1	0.454018849450222	0	0	2964.0	1
685.31884765625	0.2	SCRAMBLED	0	0.547861024548183	0	0	2972.0	1
686.818359375	0.2	SCRAMBLED	0	n/a	0	1	2979.0	0
688.16845703125	0.2	SCRAMBLED	0	0.388514235488401	0	0	2987.0	1
689.21826171875	0.2	FACES	1	0.602283497555618	0	0	2995.0	1
690.59814453125	0.2	SCRAMBLED	0	0.384293574257754	0	0	3003.0	1
691.80810546875	0.2	SCRAMBLED	0	0.369388600258389	0	0	3011.0	1
692.93798828125	0.2	SCRAMBLED	0	0.306817893695552	0	0	3019.0	1
694.06787109375	0.2	FACES	1	0.438748344393389	0	0	3027.0	1
695.18798828125	0.2	FACES	1	0.487529384350637	0	0	3035.0	1
696.5576171875	0.2	SCRAMBLED	0	0.353479095003422	0	0	3043.0	1
697.7275390625	0.2	FACES	1	0.463230775359989	0	0	3051.0	1
698.9775390625	0.2	FACES	1	0.437937294067524	0	0	3059.0	1
700.34765625	0.2	SCRAMBLED	0	0.433809600275708	0	0	3067.0	1
701.4775390625	0.2	FACES	1	0.421744358867727	0	0	3075.0	1
702.7470703125	0.2	SCRAMBLED	0	0.563728573724802	0	0	3083.0	1
704.0673828125	0.2	SCRAMBLED	0	0.407381795524998	0	0	3091.0	1
705.22705078125	0.2	SCRAMBLED	0	0.427313953445264	0	0	3099.0	1
706.56689453125	0.2	FACES	1	0.45308193087476	0	0	3107.0	1
707.796875	0.2	FACES	1	0.408846938171337	0	0	3115.0	1
709.0966796875	0.2	SCRAMBLED	0	0.364768601637479	0	0	3123.0	1
710.16650390625	0.2	FACES	1	1.06157130662541	0	0	3131.0	1
711.90673828125	0.2	SCRAMBLED	0	0.74747478710924	0	0	3135.0	1
713.50634765625	0.2	FACES	1	0.779830473278707	0	0	3141.0	1
715.076171875	0.2	SCRAMBLED	0	0.394014708173927	0	0	3147.0	1
716.2861328125	0.2	FACES	1	0.498815570717852	0	0	3155.0	1
717.65625	0.2	FACES	1	0.503741335618543	0	0	3163.0	1
719.09619140625	0.2	SCRAMBLED	0	0.514766428372241	0	0	3171.0	1
720.32568359375	0.2	SCRAMBLED	0	0.517306733378064	0	0	3179.0	1
721.64599609375	0.2	FACES	1	0.493101997351914	0	0	3187.0	1
722.92578125	0.2	SCRAMBLED	0	0.544983561667323	0	0	3195.0	1
724.345703125	0.2	FACES	1	0.597527368045121	0	0	3203.0	1
725.61572265625	0.2	SCRAMBLED	0	0.577590682489245	0	0	3211.0	1
726.91552734375	0.2	FACES	1	0.767497195884062	0	0	3219.0	1
728.41552734375	0.2	SCRAMBLED	0	0.572260448876477	0	0	3226.0	1
729.64501953125	0.2	SCRAMBLED	0	0.51806496129575	0	0	3234.0	1
731.03515625	0.2	SCRAMBLED	0	0.60899888559652	0	0	3242.0	1
732.35498046875	0.2	SCRAMBLED	0	0.506635399826337	0	0	3250.0	1
733.6650390625	0.2	SCRAMBLED	0	0.369583590403636	0	0	3258.0	1
734.95458984375	0.2	SCRAMBLED	0	0.368523520155577	0	0	3266.0	1
n/a	0.2	FACES	1	0.607329395697889	1	0	n/a	1
737.45458984375	0.2	SCRAMBLED	0	0.424094503207016	0	0	3274.0	1
738.67431640625	0.2	FACES	1	0.593943594118173	0	0	3282.0	1
740.14453125	0.2	SCRAMBLED	0	0.478782899303042	0	0	3290.0	1
741.42431640625	0.2	FACES	1	0.623534102749545	0	0	3298.0	1
742.7939453125	0.2	FACES	1	0.942301330400369	0	0	3306.0	1
744.57421875	0.2	FACES	1	0.418302148995281	0	0	3311.0	1
745.64404296875	0.2	FACES	1	0.41204918339281	0	0	3319.0	1
746.73388671875	0.2	FACES	1	0.401903961017524	0	0	3327.0	1
n/a	0.2	SCRAMBLED	0	0.506849104189314	1	0	n/a	1
754.50341796875	0.2	FACES	1	0.577984586725506	0	0	3335.0	1
755.93310546875	0.2	FACES	1	0.593770940311515	0	0	3343.0	1
757.453125	0.2	SCRAMBLED	0	0.493295478281652	0	0	3349.0	1
758.85302734375	0.2	FACES	1	0.603365300448786	0	0	3357.0	1
760.32275390625	0.2	FACES	1	0.603256637212326	0	0	3365.0	1
761.57275390625	0.2	FACES	1	0.620999230904999	0	0	3373.0	1
763.07275390625	0.2	FACES	1	0.798776210478536	0	0	3380.0	1
764.84228515625	0.2	SCRAMBLED	0	0.578573782939202	0	0	3385.0	1
766.1123046875	0.2	SCRAMBLED	0	0.462494883773616	0	0	3393.0	1
767.4921875	0.2	FACES	1	n/a	0	1	3401.0	0
769.0419921875	0.2	FACES	1	0.542082555082743	0	0	3407.0	1
770.3818359375	0.2	FACES	1	0.477844471515709	0	0	3415.0	1
771.7119140625	0.2	FACES	1	0.59375252792961	0	0	3423.0	1
772.9619140625	0.2	SCRAMBLED	0	0.597566305703367	0	0	3431.0	1
774.3017578125	0.2	SCRAMBLED	0	0.402492553548655	0	0	3439.0	1
775.4814453125	0.2	FACES	1	0.548291753548256	0	0	3447.0	1
776.7314453125	0.2	FACES	1	0.512045319810568	0	0	3455.0	1
778.1015625	0.2	FACES	1	0.623933138303983	0	0	3463.0	1
779.4013671875	0.2	FACES	1	0.687633338846354	0	0	3471.0	1
780.951171875	0.2	SCRAMBLED	0	0.61859294389069	0	0	3477.0	1
782.34130859375	0.2	FACES	1	0.481676359831908	0	0	3485.0	1
783.56103515625	0.2	SCRAMBLED	0	0.682234888867242	0	0	3493.0	1
785.0908203125	0.2	FACES	1	0.704004662860825	0	0	3499.0	1
786.5107421875	0.2	SCRAMBLED	0	0.427315160814032	0	0	3507.0	1
787.890625	0.2	SCRAMBLED	0	0.428643568888219	0	0	3515.0	1
789.1806640625	0.2	FACES	1	0.833398430659145	0	0	3523.0	1
790.88037109375	0.2	FACES	1	1.06223535974277	0	0	3529.0	1
792.76025390625	0.2	FACES	1	0.5977561645268	0	0	3533.0	1
794.10009765625	0.2	SCRAMBLED	0	0.502814075993228	0	0	3541.0	1
795.52001953125	0.2	FACES	1	0.622695886613656	0	0	3549.0	1
797.0498046875	0.2	SCRAMBLED	0	0.509541839572194	0	0	3555.0	1
798.35009765625	0.2	SCRAMBLED	0	0.483300875224813	0	0	3563.0	1
799.48974609375	0.2	SCRAMBLED	0	0.467318625964253	0	0	3571.0	1
800.7197265625	0.2	FACES	1	0.532005549070163	0	0	3579.0	1
802.03955078125	0.2	SCRAMBLED	0	0.714931958704256	0	0	3587.0	1
803.53955078125	0.2	SCRAMBLED	0	0.353499922122865	0	0	3594.0	1
804.71923828125	0.2	FACES	1	0.518525270843384	0	0	3602.0	1
805.95947265625	0.2	SCRAMBLED	0	0.547313784412836	0	0	3610.0	1
807.30908203125	0.2	SCRAMBLED	0	0.369194817489188	0	0	3618.0	1
808.35888671875	0.2	SCRAMBLED	0	0.441074341350031	0	0	3626.0	1
809.548828125	0.2	SCRAMBLED	0	0.441969605686609	0	0	3634.0	1
810.6787109375	0.2	SCRAMBLED	0	0.442754999414319	0	0	3642.0	1
811.97900390625	0.2	SCRAMBLED	0	0.408437036294345	0	0	3650.0	1
813.27880859375	0.2	SCRAMBLED	0	0.76347876901491	0	0	3658.0	1
814.8984375	0.2	SCRAMBLED	0	0.468306555896561	0	0	3664.0	1
816.04833984375	0.2	SCRAMBLED	0	0.522000079687132	0	0	3672.0	1
817.36865234375	0.2	FACES	1	0.647824863837741	0	0	3680.0	1
818.9482421875	0.2	SCRAMBLED	0	0.483619620717946	0	0	3686.0	1
820.33837890625	0.2	FACES	1	0.442524995563872	0	0	3694.0	1
821.7080078125	0.2	FACES	1	0.398294832339161	0	0	3702.0	1
822.93798828125	0.2	FACES	1	0.348265674369031	0	0	3710.0	1
824.10791015625	0.2	SCRAMBLED	0	0.620004660446284	0	0	3718.0	1
825.3779296875	0.2	FACES	1	0.69080087220209	0	0	3726.0	1
826.87744140625	0.2	SCRAMBLED	0	0.478589418376941	0	0	3733.0	1
828.12744140625	0.2	SCRAMBLED	0	0.447558518171718	0	0	3741.0	1
829.2275390625	0.2	SCRAMBLED	0	0.547293862822698	0	0	3749.0	1
830.70751953125	0.2	FACES	1	0.468168312108901	0	0	3757.0	1
831.84716796875	0.2	SCRAMBLED	0	0.608031179104728	0	0	3765.0	1
833.197265625	0.2	FACES	1	0.503008462452271	0	0	3773.0	1
834.47705078125	0.2	FACES	1	0.548703164637118	0	0	3781.0	1
835.89697265625	0.2	FACES	1	0.77348544576671	0	0	3789.0	1
837.43701171875	0.2	SCRAMBLED	0	1.12720963673928	0	0	3795.0	1
839.36669921875	0.2	FACES	1	0.440988316287985	0	0	3799.0	1
840.48681640625	0.2	FACES	1	0.646950124781142	0	0	3807.0	1
842.1064453125	0.2	SCRAMBLED	0	0.41947208984493	0	0	3813.0	1
843.28662109375	0.2	SCRAMBLED	0	0.686540065948066	0	0	3821.0	1
844.66650390625	0.2	FACES	1	0.721309887027019	0	0	3829.0	1
846.2861328125	0.2	SCRAMBLED	0	0.543054185527581	0	0	3835.0	1
847.67626953125	0.2	FACES	1	0.683991611196689	0	0	3843.0	1
849.22607421875	0.2	SCRAMBLED	0	0.388737296965701	0	0	3849.0	1
850.35595703125	0.2	SCRAMBLED	0	0.522571165365662	0	0	3857.0	1
851.57568359375	0.2	FACES	1	0.452545858901431	0	0	3865.0	1
852.7255859375	0.2	SCRAMBLED	0	0.482305097390054	0	0	3873.0	1
853.8955078125	0.2	FACES	1	0.527227988750383	0	0	3881.0	1
855.1455078125	0.2	SCRAMBLED	0	0.423065824568766	0	0	3889.0	1
856.3251953125	0.2	SCRAMBLED	0	0.447953931616212	0	0	3897.0	1
857.71533203125	0.2	SCRAMBLED	0	0.432760396353842	0	0	3905.0	1
858.88525390625	0.2	FACES	1	0.61752864785376	0	0	3913.0	1
860.1650390625	0.2	FACES	1	0.932448291390756	0	0	3921.0	1
862.05517578125	0.2	SCRAMBLED	0	0.578061556516332	0	0	3926.0	1
863.5048828125	0.2	SCRAMBLED	0	0.428973482547008	0	0	3934.0	1
864.6845703125	0.2	SCRAMBLED	0	0.376816034349758	0	0	3942.0	1
866.0244140625	0.2	SCRAMBLED	0	0.298679017250834	0	0	3950.0	1
867.234375	0.2	FACES	1	0.523556680553156	0	0	3958.0	1
868.53466796875	0.2	SCRAMBLED	0	0.523264497183845	0	0	3966.0	1
869.92431640625	0.2	FACES	1	0.693056539897952	0	0	3974.0	1
871.29443359375	0.2	FACES	1	0.536978401371016	0	0	3982.0	1
872.59423828125	0.2	FACES	1	0.390787711876328	0	0	3990.0	1
873.77392578125	0.2	SCRAMBLED	0	0.423569901249721	0	0	3998.0	1
875.1240234375	0.2	SCRAMBLED	0	0.444483952251176	0	0	4006.0	1
876.333984375	0.2	SCRAMBLED	0	0.337277104536042	0	0	4014.0	1
877.583984375	0.2	FACES	1	0.513043814225966	0	0	4022.0	1
878.79345703125	0.2	FACES	1	0.811608433235961	0	0	4030.0	1
880.443359375	0.2	SCRAMBLED	0	0.46370496965028	0	0	4036.0	1
881.70361328125	0.2	FACES	1	0.868602904687577	0	0	4044.0	1
883.453125	0.2	SCRAMBLED	0	0.803277585069736	0	0	4049.0	1
884.9833984375	0.2	FACES	1	0.598546689572686	0	0	4055.0	1
886.38330078125	0.2	SCRAMBLED	0	0.758034439004405	0	0	4063.0	1
887.8828125	0.2	FACES	1	0.807768093334744	0	0	4070.0	1
889.552734375	0.2	SCRAMBLED	0	0.887549547420349	0	0	4076.0	1
891.32275390625	0.2	SCRAMBLED	0	0.903326242048934	0	0	4081.0	1
n/a	0.2	FACES	1	0.457476151437731	1	0	n/a	1
n/a	0.2	SCRAMBLED	0	0.393005347439612	1	0	n/a	1
895.5625	0.2	SCRAMBLED	0	0.439005212214397	0	0	4088.0	1
896.8125	0.2	FACES	1	0.532966916875012	0	0	4096.0	1
898.09228515625	0.2	SCRAMBLED	0	0.807509414462402	0	0	4104.0	1
899.7822265625	0.2	SCRAMBLED	0	0.416286144107289	0	0	4110.0	1
901.0517578125	0.2	FACES	1	0.623078622680623	0	0	4118.0	1
902.35205078125	0.2	FACES	1	0.846965337637812	0	0	4126.0	1
904.15185546875	0.2	FACES	1	1.11372271798245	0	0	4131.0	1
906.03173828125	0.2	FACES	1	0.381500627227069	0	0	4135.0	1
907.30126953125	0.2	SCRAMBLED	0	0.473319553224428	0	0	4143.0	1
908.62158203125	0.2	FACES	1	0.473478322288429	0	0	4151.0	1
910.05126953125	0.2	FACES	1	0.551975135436805	0	0	4159.0	1
911.47119140625	0.2	FACES	1	0.603612811155472	0	0	4167.0	1
n/a	0.2	FACES	1	0.56268570848988	1	0	n/a	1
n/a	0.2	SCRAMBLED	0	0.637460805774026	1	0	n/a	1
n/a	0.2	SCRAMBLED	0	0.949228913596016	1	0	n/a	1
917.48046875	0.2	FACES	1	0.649032534980506	0	0	4173.0	1
918.91064453125	0.2	FACES	1	0.50883673590215	0	0	4181.0	1
920.30029296875	0.2	FACES	1	0.637732765710098	0	0	4189.0	1
921.76025390625	0.2	FACES	1	0.529489693290088	0	0	4197.0	1
923.13037109375	0.2	FACES	1	0.448281128698	0	0	4205.0	1
924.35009765625	0.2	SCRAMBLED	0	0.507076089619659	0	0	4213.0	1
925.72021484375	0.2	SCRAMBLED	0	0.539998031985306	0	0	4221.0	1
927.0498046875	0.2	FACES	1	0.443765869360504	0	0	4229.0	1
928.25	0.2	FACES	1	0.591946303458826	0	0	4237.0	1
929.73974609375	0.2	FACES	1	0.507491424661566	0	0	4245.0	1
931.0498046875	0.2	SCRAMBLED	0	0.519240335310315	0	0	4253.0	1
932.3193359375	0.2	FACES	1	0.431979832104844	0	0	4261.0	1
933.58935546875	0.2	SCRAMBLED	0	0.522827429496829	0	0	4269.0	1
934.9091796875	0.2	SCRAMBLED	0	n/a	0	1	4277.0	0
936.50927734375	0.2	FACES	1	0.393532665977546	0	0	4283.0	1
937.6591796875	0.2	SCRAMBLED	0	0.457493054607767	0	0	4291.0	1
939.0087890625	0.2	SCRAMBLED	0	0.463249489584996	0	0	4299.0	1
940.22900390625	0.2	SCRAMBLED	0	0.417042259134178	0	0	4307.0	1
941.40869140625	0.2	FACES	1	0.622710073203052	0	0	4315.0	1
n/a	0.2	FACES	1	n/a	1	1	n/a	0
n/a	0.2	SCRAMBLED	0	0.803183712105238	1	0	n/a	1
946.42822265625	0.2	SCRAMBLED	0	0.47834371872159	0	0	4321.0	1
947.6884765625	0.2	FACES	1	0.672235758171155	0	0	4329.0	1
949.29833984375	0.2	SCRAMBLED	0	0.579983990282926	0	0	4335.0	1
n/a	0.2	SCRAMBLED	0	0.379755676745845	1	0	n/a	1
951.908203125	0.2	FACES	1	1.06755774545672	0	0	4342.0	1
953.68798828125	0.2	SCRAMBLED	0	0.42709904170988	0	0	4346.0	1
955.06787109375	0.2	FACES	1	0.583197705513157	0	0	4354.0	1
956.337890625	0.2	SCRAMBLED	0	0.591763085165439	0	0	4362.0	1
957.77734375	0.2	FACES	1	n/a	0	1	4370.0	0
959.77734375	0.2	FACES	1	0.402492855395394	0	0	4372.0	1
