COND	DIREC	ACC	RT	nameCOND	nameDIREC	outliers	bad_trials
1	0	1	0.919589624771106	COHERENT	RIGHT	0	0
1	0	1	0.774595166630206	COHERENT	RIGHT	0	0
0	0	1	0.689558728005068	RANDOM	NONE	0	0
1	180	1	0.514324919528008	COHERENT	LEFT	0	0
1	0	1	0.783120452718322	COHERENT	RIGHT	0	0
1	180	1	0.699868818533105	COHERENT	LEFT	0	0
0	0	1	0.654737685362306	RANDOM	NONE	0	0
1	180	1	0.634549443278956	COHERENT	LEFT	0	0
1	180	0	NaN	COHERENT	LEFT	1	0
0	0	1	0.963100760405723	RANDOM	NONE	0	0
1	180	1	0.769862250404913	COHERENT	LEFT	0	0
0	0	1	0.772511234639751	RANDOM	NONE	0	0
1	0	1	0.758526191620149	COHERENT	RIGHT	0	0
1	180	1	0.754386097300085	COHERENT	LEFT	0	1
1	0	1	0.808118883128373	COHERENT	RIGHT	0	0
0	0	1	1.08960213319278	RANDOM	NONE	0	0
0	0	0	NaN	RANDOM	NONE	1	0
0	0	1	0.769519959142599	RANDOM	NONE	0	0
0	0	1	0.903292455586779	RANDOM	NONE	0	0
0	0	1	1.03903871090824	RANDOM	NONE	0	0
0	0	1	1.0804490112796	RANDOM	NONE	0	0
0	0	1	1.07457029467241	RANDOM	NONE	0	0
1	180	1	0.988334025561926	COHERENT	LEFT	0	0
0	0	1	0.963113136015636	RANDOM	NONE	0	0
0	0	0	NaN	RANDOM	NONE	1	0
1	180	1	0.869619024390886	COHERENT	LEFT	0	0
0	0	1	0.994449086136228	RANDOM	NONE	0	0
0	0	1	1.02319793007337	RANDOM	NONE	0	0
0	0	0	NaN	RANDOM	NONE	1	0
1	0	1	1.06356596260503	COHERENT	RIGHT	0	0
1	0	1	0.968325380746137	COHERENT	RIGHT	0	0
1	180	1	0.913385218329495	COHERENT	LEFT	0	0
0	0	1	0.924153810118696	RANDOM	NONE	0	0
0	0	0	NaN	RANDOM	NONE	1	0
1	0	1	0.904834577334441	COHERENT	RIGHT	0	0
1	0	1	0.753604622803323	COHERENT	RIGHT	0	0
1	0	1	0.879357723950307	COHERENT	RIGHT	0	0
1	180	1	0.694281683372537	COHERENT	LEFT	0	0
1	180	1	0.829635541303105	COHERENT	LEFT	0	0
0	0	1	0.784789650851053	RANDOM	NONE	0	0
0	0	1	0.898541126868622	RANDOM	NONE	0	0
0	0	1	1.02330749949942	RANDOM	NONE	0	0
1	0	1	0.843115900908742	COHERENT	RIGHT	0	0
1	180	1	0.867902738571502	COHERENT	LEFT	0	0
0	0	1	0.784768219916259	RANDOM	NONE	0	0
0	0	1	0.939384262087515	RANDOM	NONE	0	0
1	180	1	0.954285402092864	COHERENT	LEFT	0	0
0	0	1	1.05809171715555	RANDOM	NONE	0	0
1	180	1	1.02257069793632	COHERENT	LEFT	0	0
0	0	1	0.874633259361872	RANDOM	NONE	0	0
1	180	1	0.768438753407281	COHERENT	LEFT	0	0
1	180	1	1.09912320312196	COHERENT	LEFT	0	0
0	0	1	0.940037754666264	RANDOM	NONE	0	0
1	180	1	1.18081913257265	COHERENT	LEFT	0	0
1	0	1	0.963202481883854	COHERENT	RIGHT	0	0
0	0	1	1.05333193680053	RANDOM	NONE	0	0
0	0	1	0.998997273743043	RANDOM	NONE	0	0
1	180	1	0.880560271031754	COHERENT	LEFT	0	0
0	0	1	0.973359235586031	RANDOM	NONE	0	0
0	0	1	1.05313121044401	RANDOM	NONE	0	0
0	0	1	1.0599803559835	RANDOM	NONE	0	0
1	180	0	NaN	COHERENT	LEFT	1	0
1	0	1	0.962829100672934	COHERENT	RIGHT	0	0
0	0	1	1.06453427862834	RANDOM	NONE	0	0
1	180	1	0.749284931215698	COHERENT	LEFT	0	0
0	0	1	0.834041560317019	RANDOM	NONE	0	0
1	180	1	0.789848860598795	COHERENT	LEFT	0	0
1	0	1	0.934588562279714	COHERENT	RIGHT	0	0
0	0	1	0.904469647760379	RANDOM	NONE	0	0
1	0	1	0.703325839548597	COHERENT	RIGHT	0	0
0	0	1	0.994056085057309	RANDOM	NONE	0	0
1	0	1	0.669800915674386	COHERENT	RIGHT	0	0
1	180	1	0.774612975434138	COHERENT	LEFT	0	0
1	180	1	0.688245102276596	COHERENT	LEFT	0	0
1	0	1	0.679266144436042	COHERENT	RIGHT	0	0
1	0	1	0.739101011540697	COHERENT	RIGHT	0	0
0	0	1	0.859847725664622	RANDOM	NONE	0	0
1	0	1	0.758777929639109	COHERENT	RIGHT	0	0
0	0	1	0.759426592710952	RANDOM	NONE	0	0
0	0	1	0.878307608162686	RANDOM	NONE	0	0
0	0	1	0.808917562741954	RANDOM	NONE	0	0
0	0	1	0.87484394657622	RANDOM	NONE	0	0
0	0	1	0.909797498798071	RANDOM	NONE	0	0
0	0	1	1.02407780576141	RANDOM	NONE	0	0
0	0	1	1.0190868127911	RANDOM	NONE	0	0
1	0	1	0.882921295949927	COHERENT	RIGHT	0	0
1	0	1	0.712942594072047	COHERENT	RIGHT	0	0
0	0	1	1.02443700029744	RANDOM	NONE	0	0
1	0	1	0.458135726031287	COHERENT	RIGHT	0	0
1	0	1	0.675105826558138	COHERENT	RIGHT	0	0
0	0	1	0.814042876357234	RANDOM	NONE	0	0
1	180	1	0.630772467467068	COHERENT	LEFT	0	0
0	0	1	0.759442590450817	RANDOM	NONE	0	0
0	0	1	0.993337092299043	RANDOM	NONE	0	0
1	180	1	0.714390238601482	COHERENT	LEFT	0	0
1	180	1	0.718125861764747	COHERENT	LEFT	0	0
0	0	1	0.787833447229787	RANDOM	NONE	0	0
0	0	1	0.982700708246739	RANDOM	NONE	0	0
1	0	1	0.887356895690573	COHERENT	RIGHT	0	0
0	0	1	0.889366875864653	RANDOM	NONE	0	0
0	0	1	0.809036791180006	RANDOM	NONE	0	0
0	0	1	0.96786054075983	RANDOM	NONE	0	0
1	0	1	0.748601857911126	COHERENT	RIGHT	0	0
0	0	1	0.789459481648919	RANDOM	NONE	0	0
0	0	1	0.713260134115444	RANDOM	NONE	0	0
0	0	1	0.858062317534859	RANDOM	NONE	0	0
1	180	1	0.675015575157886	COHERENT	LEFT	0	0
0	0	1	0.637944888087986	RANDOM	NONE	0	0
1	180	1	0.594540907126429	COHERENT	LEFT	0	0
1	180	1	0.584324388282766	COHERENT	LEFT	0	0
0	0	1	0.819208637089105	RANDOM	NONE	0	0
0	0	1	0.747821892635329	RANDOM	NONE	0	0
0	0	1	0.74881133774943	RANDOM	NONE	0	0
1	0	1	0.833557100460894	COHERENT	RIGHT	0	0
1	0	1	0.68330330990193	COHERENT	RIGHT	0	0
0	0	1	0.768284812893398	RANDOM	NONE	0	0
0	0	1	0.883024224804103	RANDOM	NONE	0	0
0	0	1	0.812854214106665	RANDOM	NONE	0	0
0	0	1	0.799621366702013	RANDOM	NONE	0	0
0	0	1	0.749493505521059	RANDOM	NONE	0	0
1	180	1	0.684010228894294	COHERENT	LEFT	0	0
1	0	1	0.634026649216139	COHERENT	RIGHT	0	0
1	0	1	0.549863747552081	COHERENT	RIGHT	0	0
1	0	1	0.539744422523654	COHERENT	RIGHT	0	0
1	0	1	0.574375605197019	COHERENT	RIGHT	0	0
1	180	1	0.639340917268783	COHERENT	LEFT	0	0
1	180	1	0.62327314963477	COHERENT	LEFT	0	0
0	0	1	0.660008789701351	RANDOM	NONE	0	0
0	0	1	0.629796303495823	RANDOM	NONE	0	0
0	0	1	0.630042608319854	RANDOM	NONE	0	0
0	0	1	0.648398354586789	RANDOM	NONE	0	0
0	0	1	0.609747815251467	RANDOM	NONE	0	0
1	0	1	0.694018173432596	COHERENT	RIGHT	0	0
1	0	1	0.594869313557865	COHERENT	RIGHT	0	0
1	0	1	0.703770757821985	COHERENT	RIGHT	0	0
0	0	1	0.699559126438544	RANDOM	NONE	0	0
1	0	1	0.514324919528008	COHERENT	RIGHT	0	0
0	0	1	0.594155452150517	RANDOM	NONE	0	0
1	0	1	0.530064884417698	COHERENT	RIGHT	0	0
1	180	1	0.649863506076144	COHERENT	LEFT	0	0
1	180	1	0.788605866400758	COHERENT	LEFT	0	0
0	0	1	0.718222451891961	RANDOM	NONE	0	0
1	180	1	0.603140748718033	COHERENT	LEFT	0	0
1	180	1	0.684087802839713	COHERENT	LEFT	0	0
0	0	0	NaN	RANDOM	NONE	1	0
0	0	1	0.973613992046012	RANDOM	NONE	0	0
1	0	1	0.824424503949558	COHERENT	RIGHT	0	0
1	180	1	0.823267837177809	COHERENT	LEFT	0	0
0	0	1	0.704557665512766	RANDOM	NONE	0	0
1	0	1	0.664010639402477	COHERENT	RIGHT	0	0
1	180	1	0.758540076451027	COHERENT	LEFT	0	1
0	0	1	0.608312244488843	RANDOM	NONE	0	1
1	0	1	0.518512403379646	COHERENT	RIGHT	0	1
1	180	1	0.519438461222308	COHERENT	LEFT	0	1
1	180	1	0.528247782653125	COHERENT	LEFT	0	1
0	0	1	0.623348912516121	RANDOM	NONE	0	0
0	0	1	0.654831860736522	RANDOM	NONE	0	0
1	180	1	0.503596171167374	COHERENT	LEFT	0	0
1	0	1	0.710139367479314	COHERENT	RIGHT	0	0
1	0	1	0.628286780916824	COHERENT	RIGHT	0	0
1	0	1	0.549205123622414	COHERENT	RIGHT	0	0
0	0	1	0.640013124183497	RANDOM	NONE	0	0
1	0	1	0.574617684203076	COHERENT	RIGHT	0	0
0	0	1	0.709572504171774	RANDOM	NONE	0	0
1	0	1	0.569441057082258	COHERENT	RIGHT	0	0
1	0	1	0.519207550450119	COHERENT	RIGHT	0	0
0	0	1	0.688166019111122	RANDOM	NONE	0	0
0	0	1	0.584665774012137	RANDOM	NONE	0	0
1	0	1	0.569758898968757	COHERENT	RIGHT	0	0
0	0	1	0.704476469437395	RANDOM	NONE	0	0
1	0	1	0.654070911641611	COHERENT	RIGHT	0	0
1	0	1	0.563128892280474	COHERENT	RIGHT	0	0
0	0	1	0.602992241398169	RANDOM	NONE	0	0
0	0	1	0.584752101438426	RANDOM	NONE	0	0
1	180	1	0.504616404384251	COHERENT	LEFT	0	0
1	0	1	0.598522533269715	COHERENT	RIGHT	0	0
1	180	1	0.54825522009196	COHERENT	LEFT	0	0
1	0	1	0.513230432651653	COHERENT	RIGHT	0	0
1	180	1	0.469993975190846	COHERENT	LEFT	0	0
1	0	1	0.404886796371102	COHERENT	RIGHT	0	0
0	0	1	0.588667321870162	RANDOM	NONE	0	0
0	0	1	0.54855344211046	RANDOM	NONE	0	0
1	180	1	0.499286440436663	COHERENT	LEFT	0	0
0	0	1	0.669101542785938	RANDOM	NONE	0	0
0	0	1	0.510010661135311	RANDOM	NONE	0	0
0	0	1	0.587835439399896	RANDOM	NONE	0	0
1	0	1	0.634572987121828	COHERENT	RIGHT	0	0
1	0	1	0.723457938622232	COHERENT	RIGHT	0	0
1	0	1	0.664283808356231	COHERENT	RIGHT	0	0
0	0	1	0.633756498704315	RANDOM	NONE	0	0
0	0	1	0.688993072072662	RANDOM	NONE	0	0
0	0	1	0.56378419592329	RANDOM	NONE	0	0
1	180	1	0.544571212278242	COHERENT	LEFT	0	0
1	180	1	0.484453215363828	COHERENT	LEFT	0	0
1	180	1	0.504319389743614	COHERENT	LEFT	0	0
1	180	1	0.518034584094494	COHERENT	LEFT	0	0
1	180	1	0.594943567218252	COHERENT	LEFT	0	0
1	180	1	0.408706332207657	COHERENT	LEFT	0	0
1	180	1	0.439514055070504	COHERENT	LEFT	0	0
0	0	1	0.589480490001733	RANDOM	NONE	0	0
0	0	1	0.619248661622805	RANDOM	NONE	0	0
0	0	1	0.648051535662489	RANDOM	NONE	0	0
0	0	1	0.817915838607405	RANDOM	NONE	0	0
0	0	1	0.629710881602477	RANDOM	NONE	0	0
0	0	1	0.808512186051303	RANDOM	NONE	0	0
0	0	1	0.693265374129624	RANDOM	NONE	0	0
0	0	1	0.797870066961877	RANDOM	NONE	0	0
0	0	1	0.749116502181096	RANDOM	NONE	0	0
1	180	1	0.592739803100812	COHERENT	LEFT	0	0
0	0	1	0.759656296107096	RANDOM	NONE	0	0
1	180	1	0.678426414018759	COHERENT	LEFT	0	0
1	180	1	0.653981565773393	COHERENT	LEFT	0	0
0	0	1	0.758004906778297	RANDOM	NONE	0	0
0	0	1	0.615593329002877	RANDOM	NONE	0	0
0	0	1	0.578641266683007	RANDOM	NONE	0	0
0	0	1	0.85448486070527	RANDOM	NONE	0	0
1	0	1	0.664301013472141	COHERENT	RIGHT	0	0
1	180	1	0.604148606324998	COHERENT	LEFT	0	0
0	0	1	0.737941628171939	RANDOM	NONE	0	0
1	0	1	0.627731085842242	COHERENT	RIGHT	0	0
1	180	1	0.598688245705489	COHERENT	LEFT	0	0
1	0	1	0.564484776188692	COHERENT	RIGHT	0	0
0	0	1	0.778296077716732	RANDOM	NONE	0	0
0	0	0	NaN	RANDOM	NONE	1	0
1	180	1	0.66892556764833	COHERENT	LEFT	0	0
1	180	1	0.64475177544773	COHERENT	LEFT	0	0
0	0	1	0.559475974412635	RANDOM	NONE	0	0
0	0	1	0.769380205301786	RANDOM	NONE	0	0
0	0	1	0.674209047597287	RANDOM	NONE	0	0
1	0	1	0.657933007502834	COHERENT	RIGHT	0	0
1	180	1	0.74973679190407	COHERENT	LEFT	0	0
1	180	1	0.733535609157116	COHERENT	LEFT	0	0
0	0	1	0.714440948418996	RANDOM	NONE	0	0
0	0	1	0.758169411838935	RANDOM	NONE	0	0
0	0	1	0.739982698293716	RANDOM	NONE	0	0
0	0	1	0.752816507735588	RANDOM	NONE	0	0
1	0	1	0.697423277254529	COHERENT	RIGHT	0	0
1	180	1	0.678443920979589	COHERENT	LEFT	0	0
0	0	1	0.604395514837961	RANDOM	NONE	0	0
0	0	1	0.664146771112428	RANDOM	NONE	0	0
0	0	1	0.69990503983081	RANDOM	NONE	0	0
1	0	1	0.50773988761739	COHERENT	RIGHT	0	0
0	0	1	0.608698303152778	RANDOM	NONE	0	0
1	180	1	0.508456767465759	COHERENT	LEFT	0	0
1	0	1	0.643246176841785	COHERENT	RIGHT	0	0
0	0	1	0.594070935789205	RANDOM	NONE	0	0
1	0	1	0.424941019653488	COHERENT	RIGHT	0	0
0	0	1	0.514715204010827	RANDOM	NONE	0	0
0	0	1	0.603547936472751	RANDOM	NONE	0	0
1	0	1	0.533436181695834	COHERENT	RIGHT	0	0
0	0	1	0.784147326505263	RANDOM	NONE	0	0
0	0	1	0.569147966415585	RANDOM	NONE	0	0
1	180	1	0.434826415467796	COHERENT	LEFT	0	0
0	0	1	0.509679538105956	RANDOM	NONE	0	0
1	0	1	0.479545833222801	COHERENT	RIGHT	0	0
1	180	1	0.643429999927321	COHERENT	LEFT	0	0
1	180	1	0.628191700010575	COHERENT	LEFT	0	0
0	0	1	0.559788986794047	RANDOM	NONE	0	0
0	0	0	NaN	RANDOM	NONE	1	0
0	0	1	0.649702924990379	RANDOM	NONE	0	0
0	0	1	0.594472086660062	RANDOM	NONE	0	0
0	0	1	0.639365366644597	RANDOM	NONE	0	0
0	0	1	0.634190550587846	RANDOM	NONE	0	0
0	0	1	0.629934548114761	RANDOM	NONE	0	0
0	0	1	0.635115702898474	RANDOM	NONE	0	0
0	0	1	0.569301605086366	RANDOM	NONE	0	0
1	0	1	0.574205365098351	COHERENT	RIGHT	0	0
1	180	1	0.484215362176656	COHERENT	LEFT	0	0
1	0	1	0.554038553948885	COHERENT	RIGHT	0	0
0	0	1	0.657957456878648	RANDOM	NONE	0	0
1	180	1	0.545329444776144	COHERENT	LEFT	0	0
0	0	1	0.872501334150911	RANDOM	NONE	0	0
1	0	1	0.684404437351077	COHERENT	RIGHT	0	0
0	0	1	0.550189135542496	RANDOM	NONE	0	0
1	180	1	0.494973087576	COHERENT	LEFT	0	0
1	0	1	0.628920955469766	COHERENT	RIGHT	0	0
0	0	1	0.657704813327655	RANDOM	NONE	0	0
0	0	1	0.724570536147439	RANDOM	NONE	0	0
1	180	1	0.639666607102299	COHERENT	LEFT	0	0
1	0	1	0.583167721511927	COHERENT	RIGHT	0	0
0	0	1	0.597976195364026	RANDOM	NONE	0	0
1	0	1	0.527828521132506	COHERENT	RIGHT	0	0
1	0	1	0.569697322763204	COHERENT	RIGHT	0	0
1	0	1	0.57943753154359	COHERENT	RIGHT	0	0
0	0	1	0.65412252699025	RANDOM	NONE	0	0
0	0	1	0.589119182557624	RANDOM	NONE	0	0
1	0	1	0.538932763612138	COHERENT	RIGHT	0	0
1	180	1	0.653657988847954	COHERENT	LEFT	0	0
1	0	1	0.609430878897911	COHERENT	RIGHT	0	0
0	0	1	0.563997901579569	RANDOM	NONE	0	0
1	0	1	0.488213589747829	COHERENT	RIGHT	0	0
0	0	1	0.560063966810958	RANDOM	NONE	0	0
1	180	1	0.557874389369317	COHERENT	LEFT	0	0
0	0	1	0.579666631249893	RANDOM	NONE	0	0
0	0	1	0.634502657436315	RANDOM	NONE	0	0
0	0	1	0.718411104483494	RANDOM	NONE	0	0
1	180	1	0.509060153915925	COHERENT	LEFT	0	0
1	180	1	0.914961750309885	COHERENT	LEFT	0	0
0	0	1	0.58468992154485	RANDOM	NONE	0	0
1	0	1	0.484368699003426	COHERENT	RIGHT	0	0
1	0	1	0.759299818168984	COHERENT	RIGHT	0	1
0	0	1	0.548532011175666	RANDOM	NONE	0	1
0	0	1	0.608302887319951	RANDOM	NONE	0	1
0	0	1	0.504676471368839	RANDOM	NONE	0	1
0	0	1	0.538969286754764	RANDOM	NONE	0	0
0	0	1	0.494883138019759	RANDOM	NONE	0	0
1	0	1	0.618644067796595	COHERENT	RIGHT	0	0
0	0	1	0.499576210817395	RANDOM	NONE	0	0
0	0	1	0.493256801755706	RANDOM	NONE	0	0
0	0	1	0.538578700427934	RANDOM	NONE	0	0
1	180	1	0.478971423810435	COHERENT	LEFT	0	0
1	0	1	0.46474279256563	COHERENT	RIGHT	0	0
1	180	1	0.488741213316644	COHERENT	LEFT	0	0
1	180	1	0.459468066096633	COHERENT	LEFT	0	0
0	0	1	0.658396941956198	RANDOM	NONE	0	0
0	0	1	0.57308582515725	RANDOM	NONE	0	0
0	0	1	0.439010277189482	RANDOM	NONE	0	0
0	0	1	0.497916671697567	RANDOM	NONE	0	0
0	0	1	0.52368238992949	RANDOM	NONE	0	0
0	0	1	0.624474791184184	RANDOM	NONE	0	0
1	180	1	0.53438668891431	COHERENT	LEFT	0	0
0	0	1	0.564112602355635	RANDOM	NONE	0	0
0	0	1	0.498955317407308	RANDOM	NONE	0	0
0	0	1	0.608834434862729	RANDOM	NONE	0	0
0	0	1	0.697732667505079	RANDOM	NONE	0	0
1	180	1	0.474526165058705	COHERENT	LEFT	0	0
0	0	1	0.599433197060534	RANDOM	NONE	0	0
1	180	1	0.569008816264613	COHERENT	LEFT	0	0
1	0	1	0.634783372493075	COHERENT	RIGHT	0	0
0	0	1	0.684748539677457	RANDOM	NONE	0	0
1	0	1	0.548629506834914	COHERENT	RIGHT	0	0
0	0	1	0.728260882689028	RANDOM	NONE	0	0
0	0	1	0.694368010798826	RANDOM	NONE	0	0
1	0	1	0.51494460556205	COHERENT	RIGHT	0	0
1	0	1	0.616675742114239	COHERENT	RIGHT	0	0
0	0	1	0.588830921396948	RANDOM	NONE	0	0
0	0	1	0.618507332398622	RANDOM	NONE	0	0
0	0	1	0.668403980962466	RANDOM	NONE	0	0
0	0	1	0.628284969850938	RANDOM	NONE	0	0
0	0	1	0.559717147886658	RANDOM	NONE	0	0
1	0	1	0.438764877898393	COHERENT	RIGHT	0	0
0	0	1	0.80074845274703	RANDOM	NONE	0	0
0	0	1	0.61946115990213	RANDOM	NONE	0	0
0	0	1	0.594400851441605	RANDOM	NONE	0	0
0	0	1	0.538186906725969	RANDOM	NONE	0	0
1	0	1	0.469996088099833	COHERENT	RIGHT	0	0
0	0	1	0.584925661823036	RANDOM	NONE	0	0
1	0	1	0.394706498825144	COHERENT	RIGHT	0	0
1	180	1	0.479476409069321	COHERENT	LEFT	0	0
1	180	1	0.424230478532081	COHERENT	LEFT	0	0
0	0	1	0.544216243562005	RANDOM	NONE	0	0
1	180	1	0.378095713572293	COHERENT	LEFT	0	0
1	180	1	0.498502853030914	COHERENT	LEFT	0	0
0	0	1	0.55378560855479	RANDOM	NONE	0	0
1	180	1	0.324592027451217	COHERENT	LEFT	0	0
1	0	1	0.658427730059884	COHERENT	RIGHT	0	0
1	0	1	0.48920876990087	COHERENT	RIGHT	0	0
0	0	1	0.564285257207302	RANDOM	NONE	0	0
1	180	1	0.499954723377414	COHERENT	LEFT	0	0
1	180	1	0.494472026291987	COHERENT	LEFT	0	0
0	0	1	0.613535657452303	RANDOM	NONE	0	0
1	180	1	0.438462430062827	COHERENT	LEFT	0	0
0	0	1	0.439357699803622	RANDOM	NONE	0	0
1	180	1	0.494151165963558	COHERENT	LEFT	0	0
0	0	1	0.459937131901825	RANDOM	NONE	0	0
0	0	1	0.628847305497402	RANDOM	NONE	0	0
0	0	1	0.689638716703485	RANDOM	NONE	0	0
1	0	1	0.569262969035663	COHERENT	RIGHT	0	0
1	180	1	0.618952854359122	COHERENT	LEFT	0	0
1	180	1	0.604805419189688	COHERENT	LEFT	0	0
1	0	1	0.618881317295745	COHERENT	RIGHT	0	0
0	0	1	0.609711895798682	RANDOM	NONE	0	0
1	180	1	0.493590037694048	COHERENT	LEFT	0	0
1	180	1	0.559401720753158	COHERENT	LEFT	0	0
1	0	1	0.778081164683499	COHERENT	RIGHT	0	0
1	0	1	0.587975796928731	COHERENT	RIGHT	0	0
0	0	1	0.654881061332162	RANDOM	NONE	0	0
1	0	1	0.479512932210127	COHERENT	RIGHT	0	0
1	0	1	0.599611586951141	COHERENT	RIGHT	0	0
1	0	1	0.599208926860229	COHERENT	RIGHT	0	0
0	0	1	0.665187227887145	RANDOM	NONE	0	0
1	0	1	0.584963090497695	COHERENT	RIGHT	0	0
0	0	1	0.603460401670418	RANDOM	NONE	0	0
1	0	1	0.5744857783111	COHERENT	RIGHT	0	0
1	180	1	0.574479741428149	COHERENT	LEFT	0	0
0	0	1	0.688125873839454	RANDOM	NONE	0	0
0	0	1	0.759099695499572	RANDOM	NONE	0	0
0	0	1	0.727905310283859	RANDOM	NONE	0	0
1	180	1	0.527568331478506	COHERENT	LEFT	0	0
0	0	1	0.664386737210407	RANDOM	NONE	0	0
1	180	1	0.444251800801794	COHERENT	LEFT	0	0
0	0	1	0.73794193001595	RANDOM	NONE	0	0
0	0	1	0.675206642503326	RANDOM	NONE	0	0
1	0	1	0.687865986028555	COHERENT	RIGHT	0	0
0	0	1	0.63871821279281	RANDOM	NONE	0	0
1	180	1	0.673584532057248	COHERENT	LEFT	0	0
0	0	1	0.874340168694289	RANDOM	NONE	0	0
1	0	1	0.784864810043473	COHERENT	RIGHT	0	0
0	0	1	0.714897940456467	RANDOM	NONE	0	0
1	180	1	0.677436968905567	COHERENT	LEFT	0	0
0	0	1	0.803602087312356	RANDOM	NONE	0	0
1	180	1	0.664417223468263	COHERENT	LEFT	0	0
1	180	1	0.672931039478499	COHERENT	LEFT	0	0
0	0	1	0.964046136274192	RANDOM	NONE	0	0
1	180	1	0.583725529494586	COHERENT	LEFT	0	0
1	0	1	0.658666186935079	COHERENT	RIGHT	0	0
0	0	1	0.758903496804123	RANDOM	NONE	0	0
1	0	0	NaN	COHERENT	RIGHT	1	0
1	180	1	0.753159100841913	COHERENT	LEFT	0	0
1	180	1	0.709858954266565	COHERENT	LEFT	0	0
1	0	1	0.667717285527033	COHERENT	RIGHT	0	0
0	0	1	0.684559283397903	RANDOM	NONE	0	0
0	0	1	0.728414823203821	RANDOM	NONE	0	0
0	0	1	0.629042598660817	RANDOM	NONE	0	0
0	0	1	0.555175299006805	RANDOM	NONE	0	0
1	0	1	0.720895885501704	COHERENT	RIGHT	0	0
1	180	1	0.784437096886904	COHERENT	LEFT	0	0
1	180	1	0.789171824177174	COHERENT	LEFT	0	0
0	0	1	0.713063029887053	RANDOM	NONE	0	0
1	0	1	0.842968299120002	COHERENT	RIGHT	0	0
1	180	1	0.727769178573908	COHERENT	LEFT	0	0
1	0	1	0.798630714211868	COHERENT	RIGHT	0	0
0	0	1	0.713432788967111	RANDOM	NONE	0	0
1	0	1	0.714295157695233	COHERENT	RIGHT	0	0
0	0	1	0.76818973198624	RANDOM	NONE	0	0
1	180	1	0.729761953632078	COHERENT	LEFT	0	0
0	0	1	0.62974348077023	RANDOM	NONE	0	0
1	0	1	0.75434715940446	COHERENT	RIGHT	0	0
1	180	1	0.869401394761553	COHERENT	LEFT	0	0
0	0	1	0.934137305280274	RANDOM	NONE	0	0
1	0	1	0.804883415717086	COHERENT	RIGHT	0	0
1	180	1	0.818432897632192	COHERENT	LEFT	0	0
1	0	1	0.774430057881546	COHERENT	RIGHT	0	0
0	0	1	0.858243122178465	RANDOM	NONE	0	0
1	180	1	0.754165751071923	COHERENT	LEFT	0	0
0	0	1	0.890369300276689	RANDOM	NONE	0	0
0	0	1	0.713619026806555	RANDOM	NONE	0	0
0	0	1	0.799434525174547	RANDOM	NONE	0	0
1	0	1	0.914051086518157	COHERENT	RIGHT	0	0
1	180	1	0.765007389144557	COHERENT	LEFT	0	0
0	0	1	0.857887851618216	RANDOM	NONE	0	0
1	0	1	0.902658281033837	COHERENT	RIGHT	0	0
1	0	1	0.863425484339132	COHERENT	RIGHT	0	0
1	0	1	0.958056642864904	COHERENT	RIGHT	0	0
0	0	1	0.99853665957562	RANDOM	NONE	0	0
0	0	1	0.81490343402038	RANDOM	NONE	0	0
1	180	1	0.799659700908705	COHERENT	LEFT	0	0
0	0	1	0.913411478771195	RANDOM	NONE	0	0
0	0	1	0.894133900478664	RANDOM	NONE	0	0
0	0	1	1.01793769212327	RANDOM	NONE	0	0
1	0	1	0.729232820842299	COHERENT	RIGHT	0	1
0	0	1	0.67812607909309	RANDOM	NONE	0	1
0	0	1	0.628364656707163	RANDOM	NONE	0	1
1	180	1	0.527159936347743	COHERENT	LEFT	0	1
1	0	1	0.584909965927181	COHERENT	RIGHT	0	1
1	0	1	0.594863276674914	COHERENT	RIGHT	0	0
0	0	1	0.554713779306439	RANDOM	NONE	0	0
0	0	1	0.638401880126366	RANDOM	NONE	0	0
1	180	1	0.608306207605892	COHERENT	LEFT	0	0
1	0	1	0.613987216296664	COHERENT	RIGHT	0	0
0	0	1	0.574698578434436	RANDOM	NONE	0	0
1	180	1	0.575572719084448	COHERENT	LEFT	0	0
0	0	1	0.588622950780518	RANDOM	NONE	0	0
1	180	1	0.549350310658156	COHERENT	LEFT	0	0
1	0	1	0.574262715485929	COHERENT	RIGHT	0	0
0	0	1	0.524576754137343	RANDOM	NONE	0	0
0	0	1	0.574735705264175	RANDOM	NONE	0	0
1	180	1	0.524668212913639	COHERENT	LEFT	0	0
0	0	1	0.629596180826411	RANDOM	NONE	0	1
1	180	1	0.608329147760742	COHERENT	LEFT	0	1
1	180	1	0.664148582178314	COHERENT	LEFT	0	0
0	0	1	0.704030343787963	RANDOM	NONE	0	0
1	0	1	0.681054269162814	COHERENT	RIGHT	0	0
1	0	1	0.739478316723762	COHERENT	RIGHT	0	0
1	180	1	0.674401624162783	COHERENT	LEFT	0	0
0	0	1	0.719192578980255	RANDOM	NONE	0	0
1	0	1	0.669921351489393	COHERENT	RIGHT	0	0
1	0	1	0.839640165555466	COHERENT	RIGHT	0	0
1	180	1	0.619540243069423	COHERENT	LEFT	0	0
0	0	1	0.823405779952736	RANDOM	NONE	0	0
0	0	1	0.788081261273874	RANDOM	NONE	0	0
0	0	1	0.77489701077684	RANDOM	NONE	0	0
1	180	1	0.699830484326412	COHERENT	LEFT	0	0
0	0	1	0.914619459047572	RANDOM	NONE	0	0
0	0	1	0.839243240501673	RANDOM	NONE	0	0
0	0	1	1.03797893610863	RANDOM	NONE	0	0
1	180	1	0.887901120687275	COHERENT	LEFT	0	0
0	0	1	0.924429393824539	RANDOM	NONE	0	0
0	0	1	1.00452404007501	RANDOM	NONE	0	0
1	180	1	0.924167996793585	COHERENT	LEFT	0	0
0	0	1	1.02906970426466	RANDOM	NONE	0	0
1	0	1	0.77982854045058	COHERENT	RIGHT	0	0
0	0	1	0.938660741667263	RANDOM	NONE	0	0
0	0	1	0.984152578594149	RANDOM	NONE	0	0
0	0	1	1.17916985615284	RANDOM	NONE	0	0
1	0	1	0.849684029546552	COHERENT	RIGHT	0	0
1	0	1	0.923766845922728	COHERENT	RIGHT	0	0
0	0	1	1.00255028119773	RANDOM	NONE	0	0
1	0	1	1.09334620799291	COHERENT	RIGHT	0	0
0	0	1	1.06509570874186	RANDOM	NONE	0	0
1	0	1	1.05981826567586	COHERENT	RIGHT	0	0
1	180	1	0.957638286877227	COHERENT	LEFT	0	0
1	0	1	0.819356540721856	COHERENT	RIGHT	0	0
1	180	1	0.774183753058423	COHERENT	LEFT	0	0
0	0	1	1.00308122505248	RANDOM	NONE	0	0
0	0	1	1.16939704820561	RANDOM	NONE	0	0
1	180	1	0.999162080647693	COHERENT	LEFT	0	0
0	0	1	1.1183072097283	RANDOM	NONE	0	0
0	0	1	1.06807672153718	RANDOM	NONE	0	0
1	180	1	0.909887750198322	COHERENT	LEFT	0	0
1	180	1	0.949663564513685	COHERENT	LEFT	0	0
1	0	1	1.00433538748348	COHERENT	RIGHT	0	0
0	0	1	1.09373679431883	RANDOM	NONE	0	0
0	0	0	NaN	RANDOM	NONE	1	0
0	0	1	1.17492139978458	RANDOM	NONE	0	0
0	0	1	1.15843044665689	RANDOM	NONE	0	0
1	180	1	1.08563107159443	COHERENT	LEFT	0	0
0	0	1	1.10364814872901	RANDOM	NONE	0	0
0	0	1	0.983405212486105	RANDOM	NONE	0	0
0	0	1	1.02853000693085	RANDOM	NONE	0	0
0	0	0	NaN	RANDOM	NONE	1	0
1	180	1	0.943713612688043	COHERENT	LEFT	0	0
1	0	1	0.833869810997385	COHERENT	RIGHT	0	0
0	0	1	0.69459469575304	RANDOM	NONE	0	0
1	180	1	0.684531513736147	COHERENT	LEFT	0	0
0	0	1	0.744337705647013	RANDOM	NONE	0	0
1	0	1	0.81807641969408	COHERENT	RIGHT	0	0
1	0	1	0.887838638947869	COHERENT	RIGHT	0	0
1	0	1	0.948349335098101	COHERENT	RIGHT	0	0
1	180	1	0.849542766486593	COHERENT	LEFT	0	0
0	0	1	0.764301375685136	RANDOM	NONE	0	0
1	180	1	0.639867937148665	COHERENT	LEFT	0	0
1	180	1	0.68884516844173	COHERENT	LEFT	0	0
1	0	1	0.742800413406258	COHERENT	RIGHT	0	0
1	0	1	0.57457542602333	COHERENT	RIGHT	0	0
0	0	1	0.744354307073991	RANDOM	NONE	0	0
0	0	1	0.615119433692598	RANDOM	NONE	0	0
1	0	1	0.712881319710505	COHERENT	RIGHT	0	0
1	0	1	0.669832911154117	COHERENT	RIGHT	0	0
1	180	1	0.80761208680542	COHERENT	LEFT	0	0
1	0	1	0.748337744282253	COHERENT	RIGHT	0	0
1	180	1	0.584177088338947	COHERENT	LEFT	0	0
1	0	1	0.559945040217826	COHERENT	RIGHT	0	0
1	180	1	0.51987311679386	COHERENT	LEFT	0	0
1	180	1	0.737593300025765	COHERENT	LEFT	0	0
0	0	1	0.794410329347556	RANDOM	NONE	0	0
1	180	1	0.614288154911264	COHERENT	LEFT	0	0
0	0	1	0.634109354512475	RANDOM	NONE	0	0
1	180	1	0.509840421036643	COHERENT	LEFT	0	0
0	0	1	0.804626546348118	RANDOM	NONE	0	0
1	180	1	0.604564849403687	COHERENT	LEFT	0	0
0	0	1	0.773104660232093	RANDOM	NONE	0	0
0	0	1	0.848110516008092	RANDOM	NONE	0	0
1	180	1	0.82792468867774	COHERENT	LEFT	0	0
1	180	1	0.654820088814631	COHERENT	LEFT	0	0
0	0	1	0.708698665365773	RANDOM	NONE	0	0
1	180	1	0.624418346328639	COHERENT	LEFT	0	0
1	0	1	0.673197266016359	COHERENT	RIGHT	0	0
1	0	1	0.704062942955716	COHERENT	RIGHT	0	0
0	0	1	0.732849517411523	RANDOM	NONE	0	0
0	0	1	0.724760999803948	RANDOM	NONE	0	0
0	0	1	0.764550698951098	RANDOM	NONE	0	0
0	0	1	0.92330743913044	RANDOM	NONE	0	0
0	0	1	0.868205790095089	RANDOM	NONE	0	0
0	0	1	0.89460115521797	RANDOM	NONE	0	0
0	0	1	0.729763764696145	RANDOM	NONE	0	0
1	0	1	0.589561987921115	COHERENT	RIGHT	0	0
1	0	1	0.639297451711172	COHERENT	RIGHT	0	0
0	0	1	0.793725143133997	RANDOM	NONE	0	0
0	0	1	0.734015541351255	RANDOM	NONE	0	0
0	0	1	0.780757013046241	RANDOM	NONE	0	0
0	0	1	0.868539629721454	RANDOM	NONE	0	0
1	180	1	0.664326066535978	COHERENT	LEFT	0	0
0	0	1	0.688887124777466	RANDOM	NONE	0	0
0	0	1	0.714870774483643	RANDOM	NONE	0	0
0	0	1	0.824777359757718	RANDOM	NONE	0	0
0	0	1	1.02886052627218	RANDOM	NONE	0	0
0	0	1	0.889174299298247	RANDOM	NONE	0	0
0	0	1	0.724080944941306	RANDOM	NONE	0	0
1	180	1	0.555741860470334	COHERENT	LEFT	0	0
1	0	1	0.567874184115681	COHERENT	RIGHT	0	0
0	0	1	0.564578649718896	RANDOM	NONE	0	0
1	180	1	0.44949151335004	COHERENT	LEFT	0	0
0	0	1	0.529121621459126	RANDOM	NONE	0	0
0	0	1	0.623827637333306	RANDOM	NONE	0	0
0	0	1	0.935676408586005	RANDOM	NONE	0	0
0	0	1	0.768612313792801	RANDOM	NONE	0	0
1	180	1	0.528570454045621	COHERENT	LEFT	0	0
0	0	1	0.529314198023712	RANDOM	NONE	0	0
0	0	1	0.604210786219483	RANDOM	NONE	0	0
0	0	1	0.51502549979341	RANDOM	NONE	0	0
0	0	1	0.649591544500254	RANDOM	NONE	0	0
1	0	1	0.539627910683521	COHERENT	RIGHT	0	0
1	0	1	0.534972266559635	COHERENT	RIGHT	0	0
1	0	1	0.60228954822378	COHERENT	RIGHT	0	0
1	0	1	0.599065550889463	COHERENT	RIGHT	0	0
1	0	1	0.56570754682798	COHERENT	RIGHT	0	0
1	0	1	0.538658085438328	COHERENT	RIGHT	0	0
1	180	1	0.659582585765747	COHERENT	LEFT	0	0
0	0	1	0.714324738421965	RANDOM	NONE	0	0
