onset	duration	trial_type	trial_type_id	response_time	bad_epoch	outliers	direction	name_direction	event_num	response_accuracy
147.33837890625	0.2	COHERENT	1	0.989901023571292	0	0	0	RIGHT	1.0	1
149.17822265625	0.2	COHERENT	1	0.888744940250035	0	0	180	LEFT	4.0	1
150.908203125	0.2	COHERENT	1	1.05951625610396	0	0	180	LEFT	7.0	1
152.84814453125	0.2	RANDOM	0	0.645007863178762	0	0	0	NONE	9.0	1
154.177734375	0.2	COHERENT	1	0.713062232298398	0	0	180	LEFT	13.0	1
155.57763671875	0.2	RANDOM	0	0.819015910481539	0	0	0	NONE	17.0	1
157.07763671875	0.2	COHERENT	1	0.672735148255015	0	0	180	LEFT	21.0	1
158.36767578125	0.2	COHERENT	1	0.668566607604589	0	0	180	LEFT	25.0	1
159.7275390625	0.2	COHERENT	1	0.748482150134805	0	0	0	RIGHT	29.0	1
161.33740234375	0.2	COHERENT	1	0.689127685327549	0	0	180	LEFT	32.0	1
162.88720703125	0.2	RANDOM	0	1.01504145902072	0	0	0	NONE	35.0	1
164.63720703125	0.2	COHERENT	1	0.735442556542694	0	0	180	LEFT	37.0	1
166.06689453125	0.2	COHERENT	1	1.11730321680807	0	0	180	LEFT	41.0	1
167.806640625	0.2	COHERENT	1	0.813397587015061	0	0	180	LEFT	43.0	1
169.2568359375	0.2	COHERENT	1	0.752920544171502	0	0	0	RIGHT	47.0	1
170.70654296875	0.2	COHERENT	1	0.707941960394237	0	0	180	LEFT	51.0	1
172.306640625	0.2	COHERENT	1	0.52993682291708	0	0	180	LEFT	54.0	1
173.62646484375	0.2	COHERENT	1	0.69367987660371	0	0	0	RIGHT	58.0	1
175.1064453125	0.2	COHERENT	1	0.689594344548823	0	0	0	RIGHT	62.0	1
176.416015625	0.2	RANDOM	0	0.568900453075912	0	0	0	NONE	66.0	1
177.7958984375	0.2	COHERENT	1	0.58304451373624	0	0	0	RIGHT	70.0	1
179.07568359375	0.2	RANDOM	0	0.847920106494712	0	0	0	NONE	74.0	1
180.8359375	0.2	RANDOM	0	0.718636183897615	0	0	0	NONE	77.0	1
182.19580078125	0.2	RANDOM	0	0.908214530427358	0	0	0	NONE	81.0	1
183.71533203125	0.2	RANDOM	0	0.868341126079031	0	0	0	NONE	84.0	1
185.4853515625	0.2	RANDOM	0	0.679108095300762	0	0	0	NONE	87.0	1
187.0654296875	0.2	COHERENT	1	0.639925624302123	0	0	0	RIGHT	90.0	1
188.525390625	0.2	COHERENT	1	0.744858145859325	0	0	180	LEFT	94.0	1
190.05517578125	0.2	RANDOM	0	0.764491640282358	0	0	0	NONE	97.0	1
191.55517578125	0.2	COHERENT	1	0.819359113287646	0	0	0	RIGHT	101.0	1
193.19482421875	0.2	RANDOM	0	0.789074257980246	0	0	0	NONE	104.0	1
194.74462890625	0.2	COHERENT	1	0.734950541969738	0	0	180	LEFT	107.0	1
196.32470703125	0.2	RANDOM	0	0.639729422171513	0	0	0	NONE	110.0	1
197.62451171875	0.2	RANDOM	0	0.768285283935256	0	0	0	NONE	114.0	1
198.99462890625	0.2	RANDOM	0	0.77839603249231	0	0	0	NONE	118.0	1
200.38427734375	0.2	COHERENT	1	0.818168317280652	0	0	0	RIGHT	122.0	1
201.81396484375	0.2	COHERENT	1	0.882957581099618	0	0	180	LEFT	126.0	1
203.404296875	0.2	COHERENT	1	0.658027534704161	0	0	0	RIGHT	129.0	1
204.81396484375	0.2	RANDOM	0	0.739649733921397	0	0	0	NONE	133.0	1
206.23388671875	0.2	RANDOM	0	0.66344603385005	0	0	0	NONE	137.0	1
207.7236328125	0.2	COHERENT	1	0.634069745330635	0	0	0	RIGHT	141.0	1
209.25341796875	0.2	COHERENT	1	0.589119233543897	0	0	0	RIGHT	144.0	1
210.63330078125	0.2	COHERENT	1	0.539882761680929	0	0	0	RIGHT	148.0	1
212.05322265625	0.2	COHERENT	1	0.6455315719395	0	0	0	RIGHT	152.0	1
213.453125	0.2	RANDOM	0	0.828528091617045	0	0	0	NONE	156.0	1
215.01318359375	0.2	RANDOM	0	0.654390249055723	0	0	0	NONE	159.0	1
n/a	0.2	RANDOM	0	0.664198544483952	1	0	0	NONE	n/a	1
n/a	0.2	RANDOM	0	0.69812219468804	1	0	0	NONE	n/a	1
219.1630859375	0.2	RANDOM	0	n/a	0	1	0	NONE	163.0	0
221.1826171875	0.2	COHERENT	1	0.914494507847849	0	0	180	LEFT	164.0	1
222.79248046875	0.2	COHERENT	1	0.748397632291017	0	0	0	RIGHT	167.0	1
224.3525390625	0.2	RANDOM	0	0.839190017235524	0	0	0	NONE	170.0	1
225.9326171875	0.2	COHERENT	1	0.789978598877497	0	0	180	LEFT	173.0	1
227.42236328125	0.2	COHERENT	1	0.767695771995932	0	0	0	RIGHT	177.0	1
228.8720703125	0.2	COHERENT	1	0.763549870054703	0	0	180	LEFT	181.0	1
230.35205078125	0.2	RANDOM	0	0.784463507912733	0	0	0	NONE	185.0	1
231.82177734375	0.2	COHERENT	1	0.713146750138549	0	0	180	LEFT	189.0	1
233.19189453125	0.2	COHERENT	1	0.777833988850034	0	0	180	LEFT	193.0	1
234.74169921875	0.2	COHERENT	1	0.704881207155267	0	0	180	LEFT	196.0	1
236.26171875	0.2	RANDOM	0	0.754674893069023	0	0	0	NONE	199.0	1
237.79150390625	0.2	RANDOM	0	0.964327434190636	0	0	0	NONE	202.0	1
239.44140625	0.2	RANDOM	0	0.854032255632774	0	0	0	NONE	205.0	1
241.14111328125	0.2	COHERENT	1	0.708973379896634	0	0	0	RIGHT	208.0	1
242.59130859375	0.2	COHERENT	1	0.819837846484006	0	0	0	RIGHT	212.0	1
244.1611328125	0.2	COHERENT	1	0.789496545334259	0	0	0	RIGHT	215.0	1
245.86083984375	0.2	RANDOM	0	0.599417128749337	0	0	0	NONE	218.0	1
247.130859375	0.2	RANDOM	0	n/a	0	1	0	NONE	222.0	0
248.95068359375	0.2	RANDOM	0	1.06370622806207	0	0	0	NONE	223.0	1
250.75048828125	0.2	RANDOM	0	0.774467462139	0	0	0	NONE	225.0	1
252.29052734375	0.2	COHERENT	1	0.754607580645825	0	0	0	RIGHT	228.0	1
253.80029296875	0.2	RANDOM	0	0.94939192432139	0	0	0	NONE	231.0	1
255.5703125	0.2	RANDOM	0	0.853999052193103	0	0	0	NONE	234.0	1
257.06982421875	0.2	RANDOM	0	0.777951408279478	0	0	0	NONE	238.0	1
258.4599609375	0.2	RANDOM	0	0.828886085040722	0	0	0	NONE	242.0	1
260.009765625	0.2	RANDOM	0	0.664595476482646	0	0	0	NONE	245.0	1
261.27978515625	0.2	RANDOM	0	0.748410309966857	0	0	0	NONE	249.0	1
262.90966796875	0.2	RANDOM	0	1.12290825890159	0	0	0	NONE	252.0	1
264.87939453125	0.2	RANDOM	0	0.549663286958094	0	0	0	NONE	254.0	1
266.279296875	0.2	RANDOM	0	0.609836367424577	0	0	0	NONE	258.0	1
267.66943359375	0.2	RANDOM	0	0.594623156077432	0	0	0	NONE	262.0	1
268.92919921875	0.2	COHERENT	1	0.72341114005394	0	0	180	LEFT	266.0	1
270.4892578125	0.2	COHERENT	1	0.58435755876053	0	0	180	LEFT	269.0	1
271.76904296875	0.2	COHERENT	1	0.638143807107554	0	0	180	LEFT	273.0	1
273.19873046875	0.2	RANDOM	0	0.619928703163168	0	0	0	NONE	277.0	1
274.61865234375	0.2	RANDOM	0	0.690110507079225	0	0	0	NONE	281.0	1
276.138671875	0.2	RANDOM	0	0.673373861649452	0	0	0	NONE	284.0	1
277.61865234375	0.2	COHERENT	1	0.649365663422941	0	0	180	LEFT	288.0	1
278.87841796875	0.2	RANDOM	0	0.668793296525109	0	0	0	NONE	292.0	1
280.2880859375	0.2	COHERENT	1	0.63895004693768	0	0	0	RIGHT	296.0	1
281.5283203125	0.2	RANDOM	0	0.617861638256727	0	0	0	NONE	300.0	1
282.828125	0.2	COHERENT	1	0.883401601615333	0	0	0	RIGHT	304.0	1
284.60791015625	0.2	COHERENT	1	0.708426428729581	0	0	0	RIGHT	307.0	1
285.9580078125	0.2	RANDOM	0	0.67809569230667	0	0	0	NONE	311.0	1
287.4677734375	0.2	RANDOM	0	1.02368371009288	0	0	0	NONE	314.0	1
289.11767578125	0.2	COHERENT	1	0.78388335330601	0	0	0	RIGHT	316.0	1
290.78759765625	0.2	RANDOM	0	0.765374549864646	0	0	0	NONE	319.0	1
292.21728515625	0.2	RANDOM	0	0.922457295851927	0	0	0	NONE	323.0	1
293.9970703125	0.2	RANDOM	0	0.669101484796556	0	0	0	NONE	326.0	1
295.4169921875	0.2	RANDOM	0	0.629084098269232	0	0	0	NONE	330.0	1
296.787109375	0.2	COHERENT	1	0.619870144375454	0	0	0	RIGHT	334.0	1
298.23681640625	0.2	COHERENT	1	0.604826270558988	0	0	0	RIGHT	338.0	1
299.626953125	0.2	COHERENT	1	0.684435134066007	0	0	180	LEFT	342.0	1
300.9765625	0.2	COHERENT	1	0.773313189914916	0	0	0	RIGHT	346.0	1
302.57666015625	0.2	RANDOM	0	0.524626989565149	0	0	0	NONE	349.0	1
303.9765625	0.2	RANDOM	0	0.523863008653279	0	0	0	NONE	353.0	1
305.2265625	0.2	COHERENT	1	0.644616968165792	0	0	180	LEFT	357.0	1
306.74609375	0.2	COHERENT	1	0.64457742589002	0	0	0	RIGHT	360.0	1
308.09619140625	0.2	RANDOM	0	0.578231826399133	0	0	0	NONE	364.0	1
309.34619140625	0.2	RANDOM	0	0.553194321608316	0	0	0	NONE	368.0	1
310.68603515625	0.2	RANDOM	0	0.594148346925067	0	0	0	NONE	372.0	1
311.93603515625	0.2	RANDOM	0	0.567949023668916	0	0	0	NONE	376.0	1
313.39599609375	0.2	COHERENT	1	0.539776510682714	0	0	180	LEFT	380.0	1
314.70556640625	0.2	COHERENT	1	0.434622733486322	0	0	0	RIGHT	384.0	1
315.9658203125	0.2	RANDOM	0	0.654321427384275	0	0	0	NONE	388.0	1
317.41552734375	0.2	COHERENT	1	0.629392286540678	0	0	0	RIGHT	392.0	1
318.7353515625	0.2	RANDOM	0	0.5831531795302	0	0	0	NONE	396.0	1
320.1552734375	0.2	COHERENT	1	0.459885417956684	0	0	180	LEFT	400.0	1
321.4052734375	0.2	RANDOM	0	0.644805322208413	0	0	0	NONE	404.0	1
322.875	0.2	RANDOM	0	0.574571902041498	0	0	0	NONE	408.0	1
324.3447265625	0.2	COHERENT	1	0.519395637067646	0	0	180	LEFT	412.0	1
325.61474609375	0.2	COHERENT	1	0.610151498229243	0	0	180	LEFT	416.0	1
326.94482421875	0.2	RANDOM	0	0.555059751095541	0	0	0	NONE	420.0	1
328.24462890625	0.2	COHERENT	1	0.599836699457228	0	0	180	LEFT	424.0	1
329.53466796875	0.2	RANDOM	0	0.592713656576962	0	0	0	NONE	428.0	1
330.79443359375	0.2	COHERENT	1	0.613588959553454	0	0	0	RIGHT	432.0	1
332.0341796875	0.2	RANDOM	0	0.553389316341054	0	0	0	NONE	436.0	1
333.26416015625	0.2	RANDOM	0	0.542817040004593	0	0	0	NONE	440.0	1
334.583984375	0.2	RANDOM	0	0.513952084420453	0	0	0	NONE	444.0	1
335.904296875	0.2	RANDOM	0	0.598917266088392	0	0	0	NONE	448.0	1
337.1337890625	0.2	COHERENT	1	0.532633847586112	0	0	180	LEFT	452.0	1
338.28369140625	0.2	RANDOM	0	0.583582711271447	0	0	0	NONE	456.0	1
339.77392578125	0.2	COHERENT	1	0.459475808274874	0	0	180	LEFT	460.0	1
341.103515625	0.2	COHERENT	1	0.504066213692568	0	0	0	RIGHT	464.0	1
342.50341796875	0.2	COHERENT	1	0.700064897628181	0	0	180	LEFT	468.0	1
343.99365234375	0.2	COHERENT	1	0.664890685227874	0	0	0	RIGHT	472.0	1
345.5634765625	0.2	RANDOM	0	0.529603581140691	0	0	0	NONE	475.0	1
346.8232421875	0.2	RANDOM	0	0.659398232975946	0	0	0	NONE	479.0	1
348.21337890625	0.2	COHERENT	1	0.664326528640231	0	0	0	RIGHT	483.0	1
349.712890625	0.2	COHERENT	1	0.605142306914786	0	0	0	RIGHT	487.0	1
350.9130859375	0.2	RANDOM	0	0.77789526428387	0	0	0	NONE	491.0	1
352.3427734375	0.2	COHERENT	1	0.618505483093031	0	0	180	LEFT	495.0	1
353.8125	0.2	COHERENT	1	0.559580851881037	0	0	0	RIGHT	499.0	1
355.15283203125	0.2	COHERENT	1	0.57438445355001	0	0	180	LEFT	503.0	1
356.3623046875	0.2	RANDOM	0	0.718062971827749	0	0	0	NONE	507.0	1
357.92236328125	0.2	COHERENT	1	1.13385603592906	0	0	0	RIGHT	510.0	1
359.67236328125	0.2	RANDOM	0	0.803467948117031	0	0	0	NONE	512.0	1
361.34228515625	0.2	COHERENT	1	0.919973678726819	0	0	180	LEFT	515.0	1
362.9521484375	0.2	RANDOM	0	0.697393530161207	0	0	0	NONE	518.0	1
364.421875	0.2	RANDOM	0	0.634147924331046	0	0	0	NONE	522.0	1
365.7119140625	0.2	COHERENT	1	0.748047486951691	0	0	180	LEFT	526.0	1
384.67041015625	0.2	COHERENT	1	0.769340247697983	0	0	0	RIGHT	528.0	1
386.21044921875	0.2	COHERENT	1	0.669527092493809	0	0	0	RIGHT	531.0	1
387.6201171875	0.2	RANDOM	0	0.609269494190812	0	0	0	NONE	535.0	1
388.8203125	0.2	RANDOM	0	0.638089474210574	0	0	0	NONE	539.0	1
390.2900390625	0.2	COHERENT	1	0.614915587804717	0	0	0	RIGHT	543.0	1
391.6298828125	0.2	RANDOM	0	0.74482554612041	0	0	0	NONE	547.0	1
393.10986328125	0.2	RANDOM	0	0.694616515389498	0	0	0	NONE	551.0	1
394.599609375	0.2	COHERENT	1	0.579325125043397	0	0	0	RIGHT	555.0	1
395.77978515625	0.2	COHERENT	1	0.67816240103275	0	0	180	LEFT	559.0	1
397.36962890625	0.2	RANDOM	0	0.660034229724261	0	0	0	NONE	562.0	1
398.76953125	0.2	COHERENT	1	0.60887286403522	0	0	0	RIGHT	566.0	1
400.22900390625	0.2	COHERENT	1	0.859672614107694	0	0	180	LEFT	570.0	1
401.96923828125	0.2	RANDOM	0	0.724512588629295	0	0	0	NONE	573.0	1
403.31884765625	0.2	RANDOM	0	0.61331518211955	0	0	0	NONE	577.0	1
404.7587890625	0.2	RANDOM	0	0.514176660399244	0	0	0	NONE	581.0	1
406.0888671875	0.2	COHERENT	1	0.555013869983668	0	0	180	LEFT	585.0	1
407.5185546875	0.2	COHERENT	1	0.544644436460658	0	0	0	RIGHT	589.0	1
408.6884765625	0.2	COHERENT	1	0.703564539933723	0	0	0	RIGHT	593.0	1
410.2783203125	0.2	COHERENT	1	0.614326377719408	0	0	180	LEFT	596.0	1
411.70849609375	0.2	COHERENT	1	0.524133767594321	0	0	180	LEFT	600.0	1
412.84814453125	0.2	COHERENT	1	0.628108822758804	0	0	0	RIGHT	604.0	1
414.09814453125	0.2	COHERENT	1	0.512751327383739	0	0	0	RIGHT	608.0	1
415.30810546875	0.2	RANDOM	0	0.4685222357366	0	0	0	NONE	612.0	1
416.578125	0.2	RANDOM	0	0.449528963959892	0	0	0	NONE	616.0	1
417.82763671875	0.2	RANDOM	0	0.439519334966462	0	0	0	NONE	620.0	1
419.0478515625	0.2	RANDOM	0	0.474286352480703	0	0	0	NONE	624.0	1
420.41748046875	0.2	COHERENT	1	0.509007187032694	0	0	0	RIGHT	628.0	1
421.83740234375	0.2	COHERENT	1	0.530000513146661	0	0	180	LEFT	632.0	1
422.9873046875	0.2	COHERENT	1	0.72281287448277	0	0	180	LEFT	636.0	1
n/a	0.2	COHERENT	1	0.629515441109106	1	0	180	LEFT	n/a	1
n/a	0.2	RANDOM	0	0.534336580225499	1	0	0	NONE	n/a	1
427.3369140625	0.2	RANDOM	0	0.588870509614935	0	0	0	NONE	640.0	1
428.68701171875	0.2	RANDOM	0	0.590064022264414	0	0	0	NONE	644.0	1
429.876953125	0.2	COHERENT	1	0.637851315008447	0	0	180	LEFT	648.0	1
431.38671875	0.2	RANDOM	0	0.544742839374521	0	0	0	NONE	651.0	1
432.70654296875	0.2	RANDOM	0	0.534509238103055	0	0	0	NONE	655.0	1
433.9267578125	0.2	COHERENT	1	0.563318351541966	0	0	180	LEFT	659.0	1
435.19677734375	0.2	RANDOM	0	0.498299983999459	0	0	0	NONE	663.0	1
436.4765625	0.2	RANDOM	0	0.500042560768634	0	0	0	NONE	667.0	1
437.826171875	0.2	RANDOM	0	0.529848381029296	0	0	0	NONE	671.0	1
439.09619140625	0.2	RANDOM	0	0.604642746104219	0	0	0	NONE	675.0	1
440.56591796875	0.2	RANDOM	0	0.494506944047316	0	0	0	NONE	679.0	1
441.9658203125	0.2	RANDOM	0	0.409359143472102	0	0	0	NONE	683.0	1
442.99609375	0.2	RANDOM	0	0.493162506678345	0	0	0	NONE	687.0	1
444.15576171875	0.2	COHERENT	1	0.548064088670799	0	0	0	RIGHT	691.0	1
445.45556640625	0.2	COHERENT	1	0.53985227488738	0	0	0	RIGHT	695.0	1
446.685546875	0.2	COHERENT	1	0.488727131130872	0	0	180	LEFT	699.0	1
448.00537109375	0.2	RANDOM	0	0.464579176616098	0	0	0	NONE	703.0	1
449.28564453125	0.2	COHERENT	1	0.504641538707801	0	0	0	RIGHT	707.0	1
450.685546875	0.2	COHERENT	1	0.458930668202811	0	0	0	RIGHT	711.0	1
451.8251953125	0.2	COHERENT	1	0.543065160236438	0	0	0	RIGHT	715.0	1
453.2451171875	0.2	COHERENT	1	0.484933487477974	0	0	0	RIGHT	719.0	1
454.455078125	0.2	COHERENT	1	0.574640723712946	0	0	180	LEFT	723.0	1
455.6748046875	0.2	RANDOM	0	0.488288242057024	0	0	0	NONE	727.0	1
456.9248046875	0.2	COHERENT	1	0.519248334545409	0	0	180	LEFT	731.0	1
458.06494140625	0.2	COHERENT	1	0.473327980536851	0	0	180	LEFT	735.0	1
459.44482421875	0.2	RANDOM	0	0.609031033141946	0	0	0	NONE	739.0	1
460.64453125	0.2	RANDOM	0	n/a	0	1	0	NONE	743.0	0
n/a	0.2	COHERENT	1	0.482826578449021	1	0	180	LEFT	n/a	1
n/a	0.2	RANDOM	0	0.612722349836986	1	0	0	NONE	n/a	1
n/a	0.2	RANDOM	0	0.564501903158089	1	0	0	NONE	n/a	1
465.80419921875	0.2	RANDOM	0	0.554259850101516	0	0	0	NONE	747.0	1
n/a	0.2	RANDOM	0	0.555080880556488	1	0	0	NONE	n/a	1
468.32421875	0.2	COHERENT	1	0.582945808968361	0	0	180	LEFT	751.0	1
469.583984375	0.2	COHERENT	1	n/a	0	1	0	RIGHT	755.0	0
n/a	0.2	COHERENT	1	0.683713110229291	1	0	180	LEFT	n/a	1
n/a	0.2	COHERENT	1	0.534868740774982	1	0	0	RIGHT	n/a	1
n/a	0.2	RANDOM	0	0.543067575032183	1	0	0	NONE	n/a	1
n/a	0.2	RANDOM	0	0.573832370937453	1	0	0	NONE	n/a	1
n/a	0.2	RANDOM	0	0.435019061791536	1	0	0	NONE	n/a	1
477.37353515625	0.2	RANDOM	0	1.04778668904328	0	0	0	NONE	759.0	1
479.0732421875	0.2	RANDOM	0	n/a	0	1	0	NONE	761.0	0
n/a	0.2	RANDOM	0	0.674325291056448	1	0	0	NONE	n/a	1
n/a	0.2	RANDOM	0	0.509068764320546	1	0	0	NONE	n/a	1
n/a	0.2	RANDOM	0	0.595081967210717	1	0	0	NONE	n/a	1
485.06298828125	0.2	RANDOM	0	0.63089459116236	0	0	0	NONE	764.0	1
486.3525390625	0.2	COHERENT	1	0.537327606241888	0	0	180	LEFT	768.0	1
487.53271484375	0.2	COHERENT	1	0.498377559306391	0	0	180	LEFT	772.0	1
488.8525390625	0.2	COHERENT	1	0.724196250426758	0	0	0	RIGHT	776.0	1
490.3525390625	0.2	COHERENT	1	0.614087916666904	0	0	180	LEFT	780.0	1
491.7421875	0.2	COHERENT	1	0.514897778688464	0	0	180	LEFT	784.0	1
493.09228515625	0.2	RANDOM	0	0.534739549220831	0	0	0	NONE	788.0	1
494.47216796875	0.2	COHERENT	1	0.539580610402481	0	0	180	LEFT	792.0	1
495.76171875	0.2	COHERENT	1	0.629500046787143	0	0	180	LEFT	796.0	1
497.02197265625	0.2	RANDOM	0	0.923291003979102	0	0	0	NONE	800.0	1
498.8115234375	0.2	RANDOM	0	0.714798772074573	0	0	0	NONE	803.0	1
500.16162109375	0.2	COHERENT	1	0.563851719485683	0	0	180	LEFT	807.0	1
501.49169921875	0.2	RANDOM	0	0.574765085679246	0	0	0	NONE	811.0	1
502.8115234375	0.2	COHERENT	1	0.519555013568606	0	0	0	RIGHT	815.0	1
504.01123046875	0.2	COHERENT	1	0.594058093942294	0	0	0	RIGHT	819.0	1
505.361328125	0.2	RANDOM	0	0.517856204965938	0	0	0	NONE	823.0	1
506.55126953125	0.2	COHERENT	1	0.673752984534076	0	0	0	RIGHT	827.0	1
508.03125	0.2	COHERENT	1	0.529919013799372	0	0	0	RIGHT	831.0	1
n/a	0.2	COHERENT	1	0.474717091619823	1	0	180	LEFT	n/a	1
n/a	0.2	COHERENT	1	0.499504966930544	1	0	180	LEFT	n/a	1
n/a	0.2	RANDOM	0	0.508306594503665	1	0	0	NONE	n/a	1
513.24072265625	0.2	RANDOM	0	0.464254386628454	0	0	0	NONE	835.0	1
514.54052734375	0.2	RANDOM	0	0.504923767926812	0	0	0	NONE	839.0	1
515.9404296875	0.2	COHERENT	1	0.530552897605958	0	0	0	RIGHT	843.0	1
517.0703125	0.2	COHERENT	1	0.497691153701453	0	0	0	RIGHT	847.0	1
518.3701171875	0.2	RANDOM	0	0.529511517066567	0	0	0	NONE	851.0	1
519.68994140625	0.2	RANDOM	0	0.719280934281414	0	0	0	NONE	855.0	1
521.330078125	0.2	RANDOM	0	0.599214587778988	0	0	0	NONE	858.0	1
n/a	0.2	COHERENT	1	0.51999148784671	1	0	180	LEFT	n/a	1
n/a	0.2	COHERENT	1	0.504876679413428	1	0	180	LEFT	n/a	1
525.349609375	0.2	COHERENT	1	0.444771213224158	0	0	180	LEFT	862.0	1
526.52978515625	0.2	COHERENT	1	0.389232728928619	0	0	180	LEFT	866.0	1
527.54931640625	0.2	RANDOM	0	0.543327165541996	0	0	0	NONE	870.0	1
528.79931640625	0.2	RANDOM	0	0.498217277257936	0	0	0	NONE	874.0	1
529.91943359375	0.2	COHERENT	1	0.613038084342406	0	0	0	RIGHT	878.0	1
531.41943359375	0.2	RANDOM	0	0.58530174378393	0	0	0	NONE	882.0	1
n/a	0.2	RANDOM	0	0.498699934498291	1	0	0	NONE	n/a	1
534.119140625	0.2	RANDOM	0	0.454612108387664	0	0	0	NONE	886.0	1
535.369140625	0.2	RANDOM	0	0.469314892343391	0	0	0	NONE	890.0	1
536.71875	0.2	COHERENT	1	0.484197276717168	0	0	180	LEFT	894.0	1
538.0888671875	0.2	RANDOM	0	0.445053442443168	0	0	0	NONE	898.0	1
539.2587890625	0.2	COHERENT	1	0.593818425495556	0	0	0	RIGHT	902.0	1
540.57861328125	0.2	COHERENT	1	0.674745465465094	0	0	180	LEFT	906.0	1
542.0283203125	0.2	COHERENT	1	0.614497828191816	0	0	180	LEFT	910.0	1
543.3984375	0.2	COHERENT	1	0.799258054095844	0	0	0	RIGHT	914.0	1
544.79833984375	0.2	RANDOM	0	0.648076162648067	0	0	0	NONE	918.0	1
546.328125	0.2	COHERENT	1	n/a	0	1	0	RIGHT	921.0	0
n/a	0.2	COHERENT	1	1.15972121186496	1	0	0	RIGHT	n/a	1
n/a	0.2	RANDOM	0	0.62973186714953	1	0	0	NONE	n/a	1
n/a	0.2	COHERENT	1	0.698469623381243	1	0	0	RIGHT	n/a	1
552.23779296875	0.2	RANDOM	0	0.738253076600813	0	0	0	NONE	925.0	1
553.6875	0.2	RANDOM	0	0.638020350688748	0	0	0	NONE	929.0	1
555.1875	0.2	COHERENT	1	n/a	0	1	180	LEFT	933.0	0
556.75732421875	0.2	COHERENT	1	n/a	0	1	0	RIGHT	936.0	0
558.20703125	0.2	RANDOM	0	0.763351554978726	0	0	0	NONE	940.0	1
559.72705078125	0.2	COHERENT	1	1.00920942615267	0	0	0	RIGHT	943.0	1
561.60693359375	0.2	RANDOM	0	0.65476725899498	0	0	0	NONE	945.0	1
562.9267578125	0.2	RANDOM	0	0.924276542376901	0	0	0	NONE	949.0	1
564.4765625	0.2	COHERENT	1	0.592390073983552	0	0	0	RIGHT	952.0	1
565.896484375	0.2	RANDOM	0	0.614496620793943	0	0	0	NONE	956.0	1
567.19677734375	0.2	COHERENT	1	0.753268576569099	0	0	0	RIGHT	960.0	1
568.646484375	0.2	RANDOM	0	0.547802083365241	0	0	0	NONE	964.0	1
569.896484375	0.2	COHERENT	1	0.707993576641456	0	0	0	RIGHT	968.0	1
571.33642578125	0.2	RANDOM	0	0.6847520759693	0	0	0	NONE	972.0	1
572.6162109375	0.2	COHERENT	1	0.598262856521615	0	0	180	LEFT	976.0	1
574.1162109375	0.2	RANDOM	0	0.729463824853156	0	0	0	NONE	980.0	1
n/a	0.2	RANDOM	0	0.653203075238707	1	0	0	NONE	n/a	1
n/a	0.2	COHERENT	1	0.674987246860837	1	0	0	RIGHT	n/a	1
n/a	0.2	RANDOM	0	0.76774708640005	1	0	0	NONE	n/a	1
580.08544921875	0.2	RANDOM	0	0.508546866654797	0	0	0	NONE	983.0	1
581.35546875	0.2	RANDOM	0	0.559461621352966	0	0	0	NONE	987.0	1
582.6953125	0.2	COHERENT	1	0.584394384393818	0	0	180	LEFT	991.0	1
584.0751953125	0.2	COHERENT	1	0.479022068211634	0	0	180	LEFT	995.0	1
585.22509765625	0.2	COHERENT	1	0.472981759237882	0	0	180	LEFT	999.0	1
586.615234375	0.2	RANDOM	0	0.570145883830264	0	0	0	NONE	1003.0	1
n/a	0.2	COHERENT	1	0.509246251785953	1	0	180	LEFT	n/a	1
n/a	0.2	RANDOM	0	0.50348213504185	1	0	0	NONE	n/a	1
n/a	0.2	RANDOM	0	0.519219055149733	1	0	0	NONE	n/a	1
n/a	0.2	COHERENT	1	0.528878538807476	1	0	180	LEFT	n/a	1
616.8828125	0.2	COHERENT	1	0.504953349169227	0	0	180	LEFT	1007.0	1
618.15283203125	0.2	COHERENT	1	0.625132889214001	0	0	0	RIGHT	1011.0	1
619.40234375	0.2	RANDOM	0	0.542269485136785	0	0	0	NONE	1015.0	1
620.65234375	0.2	RANDOM	0	0.418273360883177	0	0	0	NONE	1019.0	1
621.822265625	0.2	RANDOM	0	0.469279575961991	0	0	0	NONE	1023.0	1
622.9921875	0.2	RANDOM	0	0.668034145208367	0	0	0	NONE	1027.0	1
624.2919921875	0.2	RANDOM	0	0.532714441382268	0	0	0	NONE	1031.0	1
625.421875	0.2	COHERENT	1	0.4189395425783	0	0	180	LEFT	1035.0	1
626.7119140625	0.2	COHERENT	1	0.534594359640323	0	0	0	RIGHT	1039.0	1
n/a	0.2	COHERENT	1	0.494488833079231	1	0	0	RIGHT	n/a	1
n/a	0.2	RANDOM	0	0.584268211332528	1	0	0	NONE	n/a	1
n/a	0.2	COHERENT	1	n/a	1	1	180	LEFT	n/a	0
n/a	0.2	RANDOM	0	0.614972939198196	1	0	0	NONE	n/a	1
n/a	0.2	RANDOM	0	0.544789626037527	1	0	0	NONE	n/a	1
n/a	0.2	COHERENT	1	0.544712352584611	1	0	0	RIGHT	n/a	1
636.201171875	0.2	RANDOM	0	0.599477498632041	0	0	0	NONE	1043.0	1
n/a	0.2	COHERENT	1	0.553253484096786	1	0	0	RIGHT	n/a	1
n/a	0.2	COHERENT	1	0.529215100923466	1	0	0	RIGHT	n/a	1
640.15087890625	0.2	COHERENT	1	0.569969905613107	0	0	180	LEFT	1047.0	1
641.3408203125	0.2	COHERENT	1	0.577750678407028	0	0	0	RIGHT	1051.0	1
642.791015625	0.2	RANDOM	0	0.594563691738585	0	0	0	NONE	1055.0	1
644.2705078125	0.2	RANDOM	0	0.569497209402471	0	0	0	NONE	1059.0	1
645.71044921875	0.2	RANDOM	0	0.549264845707512	0	0	0	NONE	1063.0	1
n/a	0.2	COHERENT	1	0.529127262736438	1	0	180	LEFT	n/a	1
n/a	0.2	RANDOM	0	0.519743065764487	1	0	0	NONE	n/a	1
n/a	0.2	COHERENT	1	0.508702620958502	1	0	0	RIGHT	n/a	1
650.76025390625	0.2	RANDOM	0	0.579649613180663	0	0	0	NONE	1067.0	1
652.01025390625	0.2	COHERENT	1	0.463467465157009	0	0	180	LEFT	1071.0	1
653.3798828125	0.2	COHERENT	1	0.499337440498493	0	0	180	LEFT	1075.0	1
654.72998046875	0.2	COHERENT	1	0.478993996213831	0	0	180	LEFT	1079.0	1
655.82958984375	0.2	COHERENT	1	1.13292362303764	0	0	0	RIGHT	1083.0	1
n/a	0.2	RANDOM	0	0.754423452493938	1	0	0	NONE	n/a	1
n/a	0.2	RANDOM	0	0.804468880833156	1	0	0	NONE	n/a	1
660.779296875	0.2	RANDOM	0	0.678282838955056	0	0	0	NONE	1086.0	1
662.29931640625	0.2	COHERENT	1	0.627974499759148	0	0	180	LEFT	1089.0	1
663.71923828125	0.2	COHERENT	1	0.524961136885395	0	0	0	RIGHT	1093.0	1
665.13916015625	0.2	COHERENT	1	0.559802409363328	0	0	0	RIGHT	1097.0	1
666.4189453125	0.2	RANDOM	0	0.604523213733046	0	0	0	NONE	1101.0	1
667.65869140625	0.2	RANDOM	0	0.593496352150396	0	0	0	NONE	1105.0	1
668.85888671875	0.2	COHERENT	1	0.598224521647353	0	0	180	LEFT	1109.0	1
670.1884765625	0.2	RANDOM	0	0.589168736849388	0	0	0	NONE	1113.0	1
671.48876953125	0.2	COHERENT	1	0.66772746618517	0	0	180	LEFT	1117.0	1
672.80859375	0.2	COHERENT	1	0.578737424199062	0	0	180	LEFT	1121.0	1
674.1083984375	0.2	COHERENT	1	0.434654125831003	0	0	180	LEFT	1125.0	1
675.4482421875	0.2	RANDOM	0	0.589470888131473	0	0	0	NONE	1129.0	1
676.75830078125	0.2	COHERENT	1	0.544220338008017	0	0	0	RIGHT	1133.0	1
n/a	0.2	COHERENT	1	0.563120338312729	1	0	0	RIGHT	n/a	1
n/a	0.2	RANDOM	0	0.662962169211823	1	0	0	NONE	n/a	1
680.72802734375	0.2	RANDOM	0	0.68867279823462	0	0	0	NONE	1136.0	1
n/a	0.2	COHERENT	1	0.539673278173723	1	0	0	RIGHT	n/a	1
n/a	0.2	COHERENT	1	0.469423859991366	1	0	0	RIGHT	n/a	1
684.98779296875	0.2	RANDOM	0	0.609092912276537	0	0	0	NONE	1140.0	1
n/a	0.2	RANDOM	0	0.490016631905746	1	0	0	NONE	n/a	1
687.6875	0.2	RANDOM	0	0.479864228123915	0	0	0	NONE	1144.0	1
n/a	0.2	RANDOM	0	0.578776966474834	1	0	0	NONE	n/a	1
n/a	0.2	RANDOM	0	0.484605980844208	1	0	0	NONE	n/a	1
n/a	0.2	COHERENT	1	0.498213353217579	1	0	0	RIGHT	n/a	1
692.55712890625	0.2	RANDOM	0	n/a	0	1	0	NONE	1148.0	0
n/a	0.2	COHERENT	1	0.525027543761098	1	0	0	RIGHT	n/a	1
n/a	0.2	COHERENT	1	0.527969670169114	1	0	180	LEFT	n/a	1
n/a	0.2	COHERENT	1	0.528880349906103	1	0	0	RIGHT	n/a	1
n/a	0.2	RANDOM	0	0.528633437068493	1	0	0	NONE	n/a	1
698.466796875	0.2	COHERENT	1	0.553440932595549	0	0	180	LEFT	1152.0	1
699.91650390625	0.2	COHERENT	1	0.529000485974393	0	0	180	LEFT	1156.0	1
701.29638671875	0.2	COHERENT	1	0.489125874231831	0	0	180	LEFT	1160.0	1
702.43603515625	0.2	RANDOM	0	0.587991222218989	0	0	0	NONE	1164.0	1
703.79638671875	0.2	RANDOM	0	1.13473562517538	0	0	0	NONE	1168.0	1
n/a	0.2	COHERENT	1	0.548594136274914	1	0	180	LEFT	n/a	1
n/a	0.2	RANDOM	0	0.778434669220587	1	0	0	NONE	n/a	1
n/a	0.2	RANDOM	0	0.724174819119071	1	0	0	NONE	n/a	1
n/a	0.2	RANDOM	0	0.598985182212346	1	0	0	NONE	n/a	1
711.025390625	0.2	RANDOM	0	0.527939485225943	0	0	0	NONE	1171.0	1
712.32568359375	0.2	COHERENT	1	0.574656118034909	0	0	180	LEFT	1175.0	1
713.59521484375	0.2	COHERENT	1	0.46863392002706	0	0	180	LEFT	1179.0	1
714.70556640625	0.2	RANDOM	0	0.528429688703909	0	0	0	NONE	1183.0	1
716.14501953125	0.2	COHERENT	1	0.519172570340743	0	0	0	RIGHT	1187.0	1
n/a	0.2	COHERENT	1	0.460939174321538	1	0	0	RIGHT	n/a	1
n/a	0.2	RANDOM	0	0.666489883518807	1	0	0	NONE	n/a	1
n/a	0.2	COHERENT	1	0.544722313617967	1	0	0	RIGHT	n/a	1
n/a	0.2	RANDOM	0	0.509653446668381	1	0	0	NONE	n/a	1
n/a	0.2	RANDOM	0	0.688212779699825	1	0	0	NONE	n/a	1
724.08447265625	0.2	RANDOM	0	0.554067270164524	0	0	0	NONE	1190.0	1
725.41455078125	0.2	RANDOM	0	0.54498703556601	0	0	0	NONE	1194.0	1
726.6142578125	0.2	COHERENT	1	0.658912255388714	0	0	0	RIGHT	1198.0	1
728.1044921875	0.2	RANDOM	0	0.714636980781506	0	0	0	NONE	1202.0	1
729.72412109375	0.2	COHERENT	1	0.44940792234047	0	0	0	RIGHT	1205.0	1
n/a	0.2	COHERENT	1	0.519209094120015	1	0	180	LEFT	n/a	1
732.14404296875	0.2	COHERENT	1	0.438241304473195	0	0	180	LEFT	1209.0	1
733.3740234375	0.2	RANDOM	0	0.619918440283072	0	0	0	NONE	1213.0	1
734.84375	0.2	COHERENT	1	0.439861934071814	0	0	180	LEFT	1217.0	1
736.12353515625	0.2	RANDOM	0	0.739778321778431	0	0	0	NONE	1221.0	1
737.49365234375	0.2	COHERENT	1	0.523323301869823	0	0	180	LEFT	1225.0	1
738.79345703125	0.2	RANDOM	0	0.604405794303602	0	0	0	NONE	1229.0	1
740.033203125	0.2	RANDOM	0	0.663043366705097	0	0	0	NONE	1233.0	1
741.4931640625	0.2	RANDOM	0	0.709951070206444	0	0	0	NONE	1237.0	1
743.04296875	0.2	COHERENT	1	0.71872945537325	0	0	0	RIGHT	1240.0	1
744.5029296875	0.2	COHERENT	1	0.634633298217523	0	0	0	RIGHT	1244.0	1
745.73291015625	0.2	RANDOM	0	0.638404001318122	0	0	0	NONE	1248.0	1
747.0029296875	0.2	RANDOM	0	0.60319386883566	0	0	0	NONE	1252.0	1
748.5029296875	0.2	COHERENT	1	0.57947484235774	0	0	180	LEFT	1256.0	1
749.982421875	0.2	COHERENT	1	0.50896281516907	0	0	0	RIGHT	1260.0	1
751.37255859375	0.2	RANDOM	0	0.614698256216798	0	0	0	NONE	1264.0	1
752.75244140625	0.2	COHERENT	1	0.595232891926571	0	0	0	RIGHT	1268.0	1
754.12255859375	0.2	COHERENT	1	0.543415305575763	0	0	0	RIGHT	1272.0	1
755.4423828125	0.2	RANDOM	0	0.60419268860278	0	0	0	NONE	1276.0	1
756.92236328125	0.2	RANDOM	0	n/a	0	1	0	NONE	1280.0	0
758.7919921875	0.2	RANDOM	0	0.623480867274338	0	0	0	NONE	1281.0	1
760.03173828125	0.2	RANDOM	0	0.518747868187347	0	0	0	NONE	1285.0	1
761.24169921875	0.2	RANDOM	0	0.488454561094841	0	0	0	NONE	1289.0	1
762.6318359375	0.2	COHERENT	1	0.4693420587937	0	0	0	RIGHT	1293.0	1
763.83154296875	0.2	COHERENT	1	0.573969108729216	0	0	180	LEFT	1297.0	1
765.05126953125	0.2	COHERENT	1	0.49790878713975	0	0	0	RIGHT	1301.0	1
766.2314453125	0.2	RANDOM	0	0.572877621183579	0	0	0	NONE	1305.0	1
767.451171875	0.2	RANDOM	0	0.508651910255139	0	0	0	NONE	1309.0	1
768.5810546875	0.2	COHERENT	1	0.57360326721755	0	0	180	LEFT	1313.0	1
769.93115234375	0.2	COHERENT	1	n/a	0	1	0	RIGHT	1317.0	0
771.80078125	0.2	COHERENT	1	0.688866887419863	0	0	0	RIGHT	1319.0	1
773.32080078125	0.2	COHERENT	1	0.69470707021901	0	0	0	RIGHT	1322.0	1
774.6005859375	0.2	RANDOM	0	0.658295275152341	0	0	0	NONE	1326.0	1
775.970703125	0.2	COHERENT	1	0.688452448150201	0	0	0	RIGHT	1330.0	1
777.560546875	0.2	COHERENT	1	0.569343568040495	0	0	0	RIGHT	1333.0	1
778.810546875	0.2	RANDOM	0	0.683051154424902	0	0	0	NONE	1337.0	1
780.1103515625	0.2	RANDOM	0	n/a	0	1	0	NONE	1341.0	0
781.63037109375	0.2	COHERENT	1	0.478575331053435	0	0	180	LEFT	1344.0	1
782.81005859375	0.2	COHERENT	1	0.688682457417599	0	0	0	RIGHT	1348.0	1
784.330078125	0.2	RANDOM	0	0.585156856057438	0	0	0	NONE	1351.0	1
785.81005859375	0.2	COHERENT	1	0.448401556335739	0	0	180	LEFT	1355.0	1
787.07958984375	0.2	RANDOM	0	0.604155862969492	0	0	0	NONE	1359.0	1
788.4794921875	0.2	COHERENT	1	0.519888255341357	0	0	180	LEFT	1363.0	1
789.87939453125	0.2	COHERENT	1	0.494721257142373	0	0	180	LEFT	1367.0	1
791.029296875	0.2	COHERENT	1	0.858610405957734	0	0	180	LEFT	1371.0	1
792.61962890625	0.2	RANDOM	0	0.524381887826166	0	0	0	NONE	1374.0	1
793.76953125	0.2	RANDOM	0	0.563345517988637	0	0	0	NONE	1378.0	1
795.04931640625	0.2	RANDOM	0	0.554153599099664	0	0	0	NONE	1382.0	1
796.35888671875	0.2	RANDOM	0	0.649895409169403	0	0	0	NONE	1386.0	1
797.85888671875	0.2	COHERENT	1	0.359873645829794	0	0	180	LEFT	1390.0	1
799.06884765625	0.2	RANDOM	0	0.5396765985206	0	0	0	NONE	1394.0	1
800.30859375	0.2	RANDOM	0	0.768382479451247	0	0	0	NONE	1398.0	1
801.90869140625	0.2	RANDOM	0	0.594281160669198	0	0	0	NONE	1401.0	1
803.228515625	0.2	RANDOM	0	0.404127489124221	0	0	0	NONE	1405.0	1
804.4287109375	0.2	COHERENT	1	0.539861934070359	0	0	180	LEFT	1409.0	1
805.70849609375	0.2	RANDOM	0	0.529697758167458	0	0	0	NONE	1413.0	1
807.0283203125	0.2	RANDOM	0	1.18417433615832	0	0	0	NONE	1417.0	1
808.828125	0.2	COHERENT	1	0.503020003561687	0	0	180	LEFT	1419.0	1
810.1181640625	0.2	COHERENT	1	0.605301079714991	0	0	0	RIGHT	1423.0	1
811.587890625	0.2	COHERENT	1	0.424931555640796	0	0	180	LEFT	1427.0	1
832.8662109375	0.2	COHERENT	1	0.539918379912706	0	0	180	LEFT	1429.0	1
834.1162109375	0.2	RANDOM	0	0.508105260931188	0	0	0	NONE	1433.0	1
835.40625	0.2	COHERENT	1	0.365302709702519	0	0	180	LEFT	1437.0	1
836.416015625	0.2	RANDOM	0	0.506864659771963	0	0	0	NONE	1441.0	1
837.7060546875	0.2	RANDOM	0	0.51461132357872	0	0	0	NONE	1445.0	1
838.93603515625	0.2	COHERENT	1	n/a	0	1	0	RIGHT	1449.0	0
n/a	0.2	RANDOM	0	0.663326803325617	1	0	0	NONE	n/a	1
n/a	0.2	COHERENT	1	0.543135793002875	1	0	0	RIGHT	n/a	1
n/a	0.2	COHERENT	1	0.628075921169511	1	0	0	RIGHT	n/a	1
844.275390625	0.2	COHERENT	1	0.464862009532226	0	0	180	LEFT	1453.0	1
845.4052734375	0.2	RANDOM	0	0.493601999452949	0	0	0	NONE	1457.0	1
846.66552734375	0.2	COHERENT	1	0.65960017024554	0	0	180	LEFT	1461.0	1
848.1650390625	0.2	COHERENT	1	0.649394037267484	0	0	0	RIGHT	1465.0	1
849.4150390625	0.2	COHERENT	1	0.46811534270455	0	0	180	LEFT	1469.0	1
850.68505859375	0.2	COHERENT	1	0.429911769409955	0	0	0	RIGHT	1473.0	1
851.884765625	0.2	COHERENT	1	0.424832850876555	0	0	180	LEFT	1477.0	1
852.98486328125	0.2	COHERENT	1	0.413788180179836	0	0	0	RIGHT	1481.0	1
854.24462890625	0.2	RANDOM	0	0.419442423728469	0	0	0	NONE	1485.0	1
855.45458984375	0.2	RANDOM	0	0.465106507570454	0	0	0	NONE	1489.0	1
856.66455078125	0.2	COHERENT	1	0.558291652956541	0	0	180	LEFT	1493.0	1
857.91455078125	0.2	COHERENT	1	0.448128382598952	0	0	180	LEFT	1497.0	1
859.00439453125	0.2	COHERENT	1	0.483242225112917	0	0	180	LEFT	1501.0	1
860.18408203125	0.2	COHERENT	1	0.4378319966454	0	0	180	LEFT	1505.0	1
861.47412109375	0.2	RANDOM	0	0.399615745674964	0	0	0	NONE	1509.0	1
862.55419921875	0.2	RANDOM	0	0.553590348063153	0	0	0	NONE	1513.0	1
863.72412109375	0.2	COHERENT	1	0.50342810399161	0	0	0	RIGHT	1517.0	1
864.84375	0.2	COHERENT	1	0.488165993039729	0	0	180	LEFT	1521.0	1
865.94384765625	0.2	RANDOM	0	0.513015445638302	0	0	0	NONE	1525.0	1
867.24365234375	0.2	RANDOM	0	0.535512887461664	0	0	0	NONE	1529.0	1
868.673828125	0.2	COHERENT	1	0.498626283238991	0	0	180	LEFT	1533.0	1
869.7734375	0.2	COHERENT	1	0.498612096314901	0	0	0	RIGHT	1537.0	1
n/a	0.2	RANDOM	0	0.559364425836975	1	0	0	NONE	n/a	1
n/a	0.2	RANDOM	0	0.458162461400207	1	0	0	NONE	n/a	1
873.59326171875	0.2	RANDOM	0	0.429120622051414	0	0	0	NONE	1541.0	1
874.80322265625	0.2	COHERENT	1	0.344881690114562	0	0	180	LEFT	1545.0	1
875.76318359375	0.2	RANDOM	0	0.47378105653479	0	0	0	NONE	1550.0	1
877.06298828125	0.2	RANDOM	0	0.494652133624186	0	0	0	NONE	1554.0	1
878.1630859375	0.2	COHERENT	1	0.488477501654415	0	0	180	LEFT	1558.0	1
879.5029296875	0.2	RANDOM	0	0.499344986736105	0	0	0	NONE	1562.0	1
880.7529296875	0.2	COHERENT	1	0.439139608381083	0	0	0	RIGHT	1566.0	1
882.07275390625	0.2	RANDOM	0	0.525071915628359	0	0	0	NONE	1570.0	1
883.2724609375	0.2	RANDOM	0	0.472842908500752	0	0	0	NONE	1574.0	1
884.47265625	0.2	COHERENT	1	0.364658563015837	0	0	180	LEFT	1578.0	1
885.7021484375	0.2	RANDOM	0	0.514551859243511	0	0	0	NONE	1582.0	1
886.84228515625	0.2	COHERENT	1	0.443391459470149	0	0	0	RIGHT	1586.0	1
888.09228515625	0.2	COHERENT	1	0.589234238177596	0	0	0	RIGHT	1590.0	1
889.4619140625	0.2	RANDOM	0	0.425071010078682	0	0	0	NONE	1594.0	1
890.58203125	0.2	COHERENT	1	n/a	0	1	0	RIGHT	1598.0	0
n/a	0.2	RANDOM	0	0.70980165473884	1	0	0	NONE	n/a	1
n/a	0.2	COHERENT	1	0.528601441026694	1	0	0	RIGHT	n/a	1
n/a	0.2	COHERENT	1	0.624483309235075	1	0	0	RIGHT	n/a	1
895.9013671875	0.2	RANDOM	0	0.589131609372998	0	0	0	NONE	1602.0	1
897.08154296875	0.2	COHERENT	1	0.458054097456625	0	0	180	LEFT	1606.0	1
898.42138671875	0.2	COHERENT	1	0.554878037735762	0	0	0	RIGHT	1610.0	1
899.75146484375	0.2	RANDOM	0	0.604684401325358	0	0	0	NONE	1614.0	1
901.10107421875	0.2	COHERENT	1	0.439580308549921	0	0	180	LEFT	1618.0	1
902.39111328125	0.2	COHERENT	1	0.379463975776162	0	0	0	RIGHT	1622.0	1
903.52099609375	0.2	COHERENT	1	0.479277130980336	0	0	180	LEFT	1626.0	1
904.90087890625	0.2	COHERENT	1	0.459129586979543	0	0	0	RIGHT	1630.0	1
906.0908203125	0.2	RANDOM	0	0.454975233256846	0	0	0	NONE	1634.0	1
907.41064453125	0.2	RANDOM	0	0.464764210315479	0	0	0	NONE	1638.0	1
n/a	0.2	COHERENT	1	n/a	1	1	180	LEFT	n/a	0
n/a	0.2	RANDOM	0	0.489547557888727	1	0	0	NONE	n/a	1
n/a	0.2	COHERENT	1	0.523266856027476	1	0	0	RIGHT	n/a	1
912.41015625	0.2	RANDOM	0	0.539103386450734	0	0	0	NONE	1642.0	1
913.72998046875	0.2	COHERENT	1	0.46492358681644	0	0	180	LEFT	1646.0	1
914.85009765625	0.2	COHERENT	1	0.607851405562542	0	0	0	RIGHT	1650.0	1
916.1298828125	0.2	COHERENT	1	0.573572176726884	0	0	0	RIGHT	1654.0	1
917.39990234375	0.2	RANDOM	0	0.498573761433363	0	0	0	NONE	1658.0	1
918.57958984375	0.2	COHERENT	1	0.573154115263605	0	0	0	RIGHT	1662.0	1
919.9697265625	0.2	RANDOM	0	0.524099054910039	0	0	0	NONE	1666.0	1
921.31982421875	0.2	COHERENT	1	0.545012089070951	0	0	180	LEFT	1670.0	1
922.61962890625	0.2	RANDOM	0	0.559857345961063	0	0	0	NONE	1674.0	1
923.9892578125	0.2	RANDOM	0	0.589625435040944	0	0	0	NONE	1678.0	1
925.41943359375	0.2	RANDOM	0	n/a	0	1	0	NONE	1682.0	0
n/a	0.2	RANDOM	0	0.788270432942227	1	0	0	NONE	n/a	1
n/a	0.2	COHERENT	1	0.569071903555596	1	0	180	LEFT	n/a	1
n/a	0.2	COHERENT	1	0.659864590346842	1	0	0	RIGHT	n/a	1
930.9287109375	0.2	RANDOM	0	0.51979407831459	0	0	0	NONE	1686.0	1
932.1787109375	0.2	RANDOM	0	0.874512739555939	0	0	0	NONE	1690.0	1
933.728515625	0.2	RANDOM	0	0.47329628634543	0	0	0	NONE	1693.0	1
934.8486328125	0.2	RANDOM	0	0.638100340787787	0	0	0	NONE	1697.0	1
936.25830078125	0.2	RANDOM	0	0.495025823220203	0	0	0	NONE	1701.0	1
937.41845703125	0.2	RANDOM	0	0.49777959558196	0	0	0	NONE	1705.0	1
938.6181640625	0.2	RANDOM	0	0.387693900527665	0	0	0	NONE	1709.0	1
939.84814453125	0.2	RANDOM	0	0.389655318133009	0	0	0	NONE	1713.0	1
941.1181640625	0.2	COHERENT	1	0.454376363981282	0	0	0	RIGHT	1717.0	1
942.26806640625	0.2	RANDOM	0	0.538271187568171	0	0	0	NONE	1721.0	1
943.498046875	0.2	COHERENT	1	n/a	0	1	180	LEFT	1725.0	0
944.7177734375	0.2	COHERENT	1	0.564857179939281	0	0	0	RIGHT	1729.0	1
946.1875	0.2	COHERENT	1	0.469779438619298	0	0	180	LEFT	1733.0	1
947.33740234375	0.2	RANDOM	0	0.583560374416265	0	0	0	NONE	1737.0	1
948.53759765625	0.2	RANDOM	0	0.573209655558458	0	0	0	NONE	1741.0	1
950.02734375	0.2	RANDOM	0	0.529271546765813	0	0	0	NONE	1745.0	1
951.287109375	0.2	COHERENT	1	0.598904588412552	0	0	0	RIGHT	1749.0	1
952.5771484375	0.2	COHERENT	1	0.552963104943046	0	0	0	RIGHT	1753.0	1
953.947265625	0.2	RANDOM	0	0.474766896775691	0	0	0	NONE	1757.0	1
955.126953125	0.2	RANDOM	0	0.498747626708791	0	0	0	NONE	1761.0	1
956.34716796875	0.2	COHERENT	1	0.604455901309848	0	0	0	RIGHT	1765.0	1
957.61669921875	0.2	RANDOM	0	0.56870123245244	0	0	0	NONE	1769.0	1
958.77685546875	0.2	RANDOM	0	0.798213655067229	0	0	0	NONE	1773.0	1
960.296875	0.2	RANDOM	0	0.854917881864822	0	0	0	NONE	1776.0	1
961.99658203125	0.2	COHERENT	1	0.579757675277506	0	0	180	LEFT	1779.0	1
963.41650390625	0.2	COHERENT	1	n/a	0	1	0	RIGHT	1783.0	0
964.4462890625	0.2	RANDOM	0	0.953551409485954	0	0	0	NONE	1787.0	1
966.05615234375	0.2	COHERENT	1	0.498248971445719	0	0	180	LEFT	1790.0	1
967.2060546875	0.2	RANDOM	0	0.577927260324941	0	0	0	NONE	1794.0	1
968.48583984375	0.2	RANDOM	0	0.628011325388798	0	0	0	NONE	1798.0	1
969.7861328125	0.2	RANDOM	0	0.512820149055187	0	0	0	NONE	1802.0	1
971.0556640625	0.2	RANDOM	0	0.449554319315212	0	0	0	NONE	1806.0	1
972.15576171875	0.2	COHERENT	1	0.588507082895376	0	0	180	LEFT	1810.0	1
973.595703125	0.2	COHERENT	1	0.589246010305942	0	0	0	RIGHT	1814.0	1
974.85546875	0.2	RANDOM	0	0.683045419285918	0	0	0	NONE	1818.0	1
976.1455078125	0.2	COHERENT	1	n/a	0	1	0	RIGHT	1822.0	0
977.37548828125	0.2	RANDOM	0	0.599779951764503	0	0	0	NONE	1826.0	1
n/a	0.2	COHERENT	1	0.574654608790297	1	0	180	LEFT	n/a	1
980.22509765625	0.2	RANDOM	0	0.629330709256465	0	0	0	NONE	1830.0	1
981.4951171875	0.2	RANDOM	0	0.533345306695992	0	0	0	NONE	1834.0	1
982.794921875	0.2	RANDOM	0	0.5347573583349	0	0	0	NONE	1838.0	1
983.98486328125	0.2	COHERENT	1	0.587968583509792	0	0	0	RIGHT	1842.0	1
985.2646484375	0.2	COHERENT	1	n/a	0	1	0	RIGHT	1846.0	0
987.064453125	0.2	RANDOM	0	0.588609711703612	0	0	0	NONE	1847.0	1
n/a	0.2	COHERENT	1	0.598301795100269	1	0	0	RIGHT	n/a	1
989.58447265625	0.2	RANDOM	0	0.743960747498932	0	0	0	NONE	1851.0	1
991.05419921875	0.2	COHERENT	1	0.613991928545147	0	0	180	LEFT	1855.0	1
992.3740234375	0.2	COHERENT	1	0.567890163030825	0	0	0	RIGHT	1859.0	1
993.77392578125	0.2	COHERENT	1	0.68475056672105	0	0	180	LEFT	1863.0	1
995.1240234375	0.2	RANDOM	0	0.523530370581284	0	0	0	NONE	1867.0	1
996.52392578125	0.2	RANDOM	0	0.504259397326678	0	0	0	NONE	1871.0	1
997.77392578125	0.2	RANDOM	0	0.469214678334538	0	0	0	NONE	1875.0	1
999.02392578125	0.2	RANDOM	0	0.505025793034292	0	0	0	NONE	1879.0	1
1000.37353515625	0.2	COHERENT	1	0.459534668916604	0	0	180	LEFT	1883.0	1
1001.443359375	0.2	RANDOM	0	0.638777389063762	0	0	0	NONE	1887.0	1
1002.68359375	0.2	COHERENT	1	n/a	0	1	0	RIGHT	1891.0	0
1003.86328125	0.2	RANDOM	0	0.943382705838303	0	0	0	NONE	1895.0	1
1005.60302734375	0.2	COHERENT	1	0.420252889452968	0	0	180	LEFT	1898.0	1
1006.703125	0.2	RANDOM	0	0.563119432765234	0	0	0	NONE	1902.0	1
1008.1630859375	0.2	RANDOM	0	0.599781159162376	0	0	0	NONE	1906.0	1
1009.57275390625	0.2	RANDOM	0	0.589588307557278	0	0	0	NONE	1910.0	1
1010.9228515625	0.2	COHERENT	1	0.464505525353161	0	0	180	LEFT	1914.0	1
1012.1328125	0.2	RANDOM	0	0.489468473337183	0	0	0	NONE	1918.0	1
1013.50244140625	0.2	RANDOM	0	0.534128907816921	0	0	0	NONE	1922.0	1
1014.892578125	0.2	COHERENT	1	0.450016148944997	0	0	180	LEFT	1926.0	1
1016.17236328125	0.2	COHERENT	1	0.524806891826302	0	0	180	LEFT	1930.0	1
1017.59228515625	0.2	RANDOM	0	0.559634279230522	0	0	0	NONE	1934.0	1
1018.76220703125	0.2	COHERENT	1	0.938137770117464	0	0	180	LEFT	1938.0	1
1020.31201171875	0.2	COHERENT	1	0.903235222209332	0	0	0	RIGHT	1941.0	1
1022.091796875	0.2	COHERENT	1	0.584046351999859	0	0	0	RIGHT	1944.0	1
1023.56201171875	0.2	COHERENT	1	0.614976561391813	0	0	180	LEFT	1948.0	1
1024.78173828125	0.2	COHERENT	1	0.677712645378051	0	0	0	RIGHT	1952.0	1
