onset	duration	trial_type	trial_type_id	response_time	bad_epoch	outliers	event_num	response_accuracy
30.42236328125	0.2	SCRAMBLED	0	0.575938676269288	0	0	1.0	1
31.68212890625	0.2	SCRAMBLED	0	0.539818165900215	0	0	9.0	1
33.0419921875	0.2	FACES	1	0.430639528392931	0	0	17.0	1
34.171875	0.2	FACES	1	0.449167650192976	0	0	25.0	1
35.52197265625	0.2	FACES	1	0.390081831377756	0	0	33.0	1
36.6416015625	0.2	SCRAMBLED	0	0.435748933716241	0	0	41.0	1
37.91162109375	0.2	SCRAMBLED	0	0.410924836472986	0	0	49.0	1
39.21142578125	0.2	SCRAMBLED	0	0.371858577505918	0	0	57.0	1
40.38134765625	0.2	SCRAMBLED	0	0.421999390266137	0	0	65.0	1
41.4814453125	0.2	FACES	1	0.444597951649484	0	0	73.0	1
42.611328125	0.2	SCRAMBLED	0	0.602382497560029	0	0	81.0	1
44.06103515625	0.2	FACES	1	0.821132478697109	0	0	89.0	1
n/a	0.2	FACES	1	0.525836500237347	1	0	n/a	1
n/a	0.2	SCRAMBLED	0	0.516892399733479	1	0	n/a	1
48.37060546875	0.2	FACES	1	0.565235095429671	0	0	96.0	1
49.80078125	0.2	SCRAMBLED	0	0.58538777087233	0	0	104.0	1
51.05078125	0.2	SCRAMBLED	0	0.515381945180707	0	0	112.0	1
52.29052734375	0.2	FACES	1	0.525109344958764	0	0	120.0	1
53.50048828125	0.2	SCRAMBLED	0	0.499927254288195	0	0	128.0	1
54.9404296875	0.2	FACES	1	0.668852157166839	0	0	136.0	1
56.5400390625	0.2	FACES	1	1.06347984098466	0	0	142.0	1
58.52001953125	0.2	FACES	1	0.490360438405332	0	0	146.0	1
59.830078125	0.2	SCRAMBLED	0	0.596154438244412	0	0	154.0	1
61.10986328125	0.2	SCRAMBLED	0	0.48193068933324	0	0	162.0	1
62.43994140625	0.2	SCRAMBLED	0	0.417836282904318	0	0	170.0	1
63.82958984375	0.2	SCRAMBLED	0	0.386539628303581	0	0	178.0	1
64.94970703125	0.2	FACES	1	0.487550522047968	0	0	186.0	1
66.37939453125	0.2	SCRAMBLED	0	0.89231249867953	0	0	194.0	1
n/a	0.2	SCRAMBLED	0	0.640077756412211	1	0	n/a	1
n/a	0.2	FACES	1	0.43292875447878	1	0	n/a	1
70.92919921875	0.2	FACES	1	0.400737720010511	0	0	201.0	1
71.9990234375	0.2	SCRAMBLED	0	0.705579083041812	0	0	209.0	1
73.59912109375	0.2	SCRAMBLED	0	0.531354307844595	0	0	215.0	1
74.78857421875	0.2	FACES	1	0.440350628297892	0	0	223.0	1
75.98876953125	0.2	SCRAMBLED	0	0.425594115145941	0	0	231.0	1
77.11865234375	0.2	FACES	1	0.588882281739643	0	0	239.0	1
78.41845703125	0.2	SCRAMBLED	0	0.377792635477817	0	0	247.0	1
79.728515625	0.2	SCRAMBLED	0	0.558607991159079	0	0	255.0	1
80.978515625	0.2	SCRAMBLED	0	0.880395483127359	0	0	263.0	1
82.58837890625	0.2	SCRAMBLED	0	0.629935615514114	0	0	269.0	1
83.9580078125	0.2	SCRAMBLED	0	0.8100476620275	0	0	277.0	1
85.4580078125	0.2	SCRAMBLED	0	0.549880316699273	0	0	284.0	1
86.7978515625	0.2	SCRAMBLED	0	0.621824015746824	0	0	292.0	1
88.24755859375	0.2	FACES	1	0.525582946713257	0	0	300.0	1
89.4677734375	0.2	SCRAMBLED	0	0.492341778073751	0	0	308.0	1
90.77734375	0.2	FACES	1	0.416134455812426	0	0	316.0	1
92.11767578125	0.2	FACES	1	n/a	0	1	324.0	0
n/a	0.2	FACES	1	0.549859187238326	1	0	n/a	1
n/a	0.2	SCRAMBLED	0	0.497668816842634	1	0	n/a	1
n/a	0.2	FACES	1	0.866403856427496	1	0	n/a	1
97.43701171875	0.2	FACES	1	0.563363628956722	0	0	330.0	1
98.85693359375	0.2	FACES	1	0.677147885093291	0	0	338.0	1
100.18701171875	0.2	FACES	1	0.550046333886712	0	0	346.0	1
101.626953125	0.2	FACES	1	0.438810290652327	0	0	354.0	1
102.77685546875	0.2	SCRAMBLED	0	0.627592358378024	0	0	362.0	1
104.32666015625	0.2	FACES	1	0.387538749921077	0	0	368.0	1
105.5966796875	0.2	FACES	1	0.555336547025945	0	0	376.0	1
106.896484375	0.2	FACES	1	0.707103724522312	0	0	384.0	1
108.3662109375	0.2	SCRAMBLED	0	0.595877944164386	0	0	392.0	1
109.74609375	0.2	SCRAMBLED	0	0.503592611934437	0	0	400.0	1
111.166015625	0.2	SCRAMBLED	0	0.606569752875657	0	0	408.0	1
n/a	0.2	SCRAMBLED	0	0.401390016631922	1	0	n/a	1
n/a	0.2	FACES	1	0.45735652341682	1	0	n/a	1
n/a	0.2	SCRAMBLED	0	n/a	1	1	n/a	0
n/a	0.2	SCRAMBLED	0	0.672624973209167	1	0	n/a	1
n/a	0.2	SCRAMBLED	0	0.842782327319583	1	0	n/a	1
119.9853515625	0.2	FACES	1	0.461554343462922	0	0	415.0	1
121.30517578125	0.2	FACES	1	0.420315674135054	0	0	423.0	1
122.38525390625	0.2	FACES	1	0.670952425509313	0	0	431.0	1
123.794921875	0.2	FACES	1	0.575931431882054	0	0	439.0	1
125.14501953125	0.2	FACES	1	0.596830580969254	0	0	447.0	1
126.625	0.2	SCRAMBLED	0	0.544551768689416	0	0	455.0	1
127.96484375	0.2	FACES	1	0.558394885461894	0	0	463.0	1
129.29443359375	0.2	FACES	1	0.496494924402214	0	0	471.0	1
130.4443359375	0.2	FACES	1	0.822163898203144	0	0	479.0	1
n/a	0.2	SCRAMBLED	0	0.569909535726765	1	0	n/a	1
n/a	0.2	SCRAMBLED	0	0.45982233142422	1	0	n/a	1
134.734375	0.2	FACES	1	0.507612642661115	0	0	486.0	1
136.083984375	0.2	SCRAMBLED	0	n/a	0	1	494.0	0
138.15380859375	0.2	FACES	1	1.03611809557333	0	0	496.0	1
139.85400390625	0.2	SCRAMBLED	0	0.936852495240601	0	0	501.0	1
141.5537109375	0.2	SCRAMBLED	0	0.616378652001004	0	0	507.0	1
142.8935546875	0.2	SCRAMBLED	0	0.634548780377372	0	0	515.0	1
144.49365234375	0.2	SCRAMBLED	0	0.578299138822331	0	0	521.0	1
145.80322265625	0.2	SCRAMBLED	0	0.732110138818825	0	0	529.0	1
147.39306640625	0.2	FACES	1	n/a	0	1	535.0	0
149.212890625	0.2	SCRAMBLED	0	0.583794005873642	0	0	537.0	1
150.56298828125	0.2	SCRAMBLED	0	0.567590426544484	0	0	545.0	1
152.04296875	0.2	FACES	1	0.503176965266903	0	0	553.0	1
153.23291015625	0.2	SCRAMBLED	0	0.68293675348832	0	0	561.0	1
n/a	0.2	FACES	1	0.545054649839585	1	0	n/a	1
n/a	0.2	FACES	1	0.452909677595017	1	0	n/a	1
157.302734375	0.2	SCRAMBLED	0	0.467725655089453	0	0	568.0	1
158.55224609375	0.2	FACES	1	0.436469750158722	0	0	576.0	1
159.8525390625	0.2	SCRAMBLED	0	0.667212511052639	0	0	584.0	1
161.30224609375	0.2	SCRAMBLED	0	0.563087738573813	0	0	592.0	1
162.55224609375	0.2	FACES	1	0.59543875324016	0	0	600.0	1
163.89208984375	0.2	FACES	1	0.725805711594148	0	0	608.0	1
165.5419921875	0.2	SCRAMBLED	0	0.573331300882273	0	0	614.0	1
166.9619140625	0.2	FACES	1	0.687374241981161	0	0	622.0	1
168.4716796875	0.2	FACES	1	n/a	0	1	628.0	0
170.2314453125	0.2	SCRAMBLED	0	0.686042784138408	0	0	633.0	1
171.71142578125	0.2	FACES	1	0.615863998718851	0	0	641.0	1
173.01123046875	0.2	SCRAMBLED	0	0.439717650042439	0	0	649.0	1
174.21142578125	0.2	FACES	1	0.638527759580029	0	0	657.0	1
175.80126953125	0.2	SCRAMBLED	0	0.856326009459735	0	0	663.0	1
177.380859375	0.2	FACES	1	0.512060394034052	0	0	669.0	1
178.82080078125	0.2	FACES	1	0.599889824959973	0	0	677.0	1
180.2509765625	0.2	FACES	1	0.466771207185957	0	0	685.0	1
181.62060546875	0.2	SCRAMBLED	0	0.47617532622462	0	0	693.0	1
n/a	0.2	SCRAMBLED	0	0.439265781442373	1	0	n/a	1
n/a	0.2	FACES	1	0.732254724698578	1	0	n/a	1
185.84033203125	0.2	FACES	1	0.534070650879585	0	0	700.0	1
187.240234375	0.2	FACES	1	0.573948582969024	0	0	708.0	1
188.5400390625	0.2	FACES	1	0.414759531653544	0	0	716.0	1
189.89013671875	0.2	SCRAMBLED	0	0.534551497021312	0	0	724.0	1
191.2900390625	0.2	SCRAMBLED	0	0.458336930372752	0	0	732.0	1
192.509765625	0.2	FACES	1	0.501044399032253	0	0	740.0	1
193.95947265625	0.2	FACES	1	0.443080856406596	0	0	748.0	1
195.19970703125	0.2	FACES	1	0.448822938142257	0	0	756.0	1
196.49951171875	0.2	FACES	1	0.67276322024918	0	0	764.0	1
198.029296875	0.2	SCRAMBLED	0	0.41757608869375	0	0	770.0	1
199.3193359375	0.2	SCRAMBLED	0	0.528330078388535	0	0	778.0	1
200.51904296875	0.2	FACES	1	0.396065694512799	0	0	786.0	1
201.8388671875	0.2	FACES	1	0.712033831285225	0	0	794.0	1
203.34912109375	0.2	SCRAMBLED	0	0.476774497343285	0	0	800.0	1
204.76904296875	0.2	FACES	1	1.0155455475724	0	0	808.0	1
206.5888671875	0.2	SCRAMBLED	0	1.03731915445678	0	0	812.0	1
208.5185546875	0.2	SCRAMBLED	0	0.559262098879117	0	0	816.0	1
n/a	0.2	FACES	1	0.480040508195088	1	0	n/a	1
211.23828125	0.2	FACES	1	0.467795080458018	0	0	824.0	1
212.658203125	0.2	SCRAMBLED	0	0.563689626338601	0	0	832.0	1
214.1279296875	0.2	FACES	1	n/a	0	1	840.0	0
n/a	0.2	SCRAMBLED	0	n/a	1	1	n/a	0
n/a	0.2	SCRAMBLED	0	0.662244371262204	1	0	n/a	1
n/a	0.2	SCRAMBLED	0	0.866024431692495	1	0	n/a	1
219.267578125	0.2	SCRAMBLED	0	0.507723119553702	0	0	846.0	1
220.61767578125	0.2	SCRAMBLED	0	0.40158169102142	0	0	854.0	1
221.84765625	0.2	FACES	1	0.507461114244506	0	0	862.0	1
223.017578125	0.2	FACES	1	0.661273019792134	0	0	870.0	1
224.517578125	0.2	FACES	1	0.454825817781966	0	0	877.0	1
225.6572265625	0.2	SCRAMBLED	0	0.490040779859555	0	0	885.0	1
226.9072265625	0.2	SCRAMBLED	0	0.914805412765418	0	0	893.0	1
228.6171875	0.2	SCRAMBLED	0	0.551187022887461	0	0	898.0	1
229.85693359375	0.2	SCRAMBLED	0	0.749378341097326	0	0	906.0	1
231.38671875	0.2	FACES	1	0.780241238062445	0	0	912.0	1
n/a	0.2	FACES	1	0.619016514185205	1	0	n/a	1
n/a	0.2	FACES	1	0.379809895228391	1	0	n/a	1
235.8564453125	0.2	FACES	1	0.710607290871849	0	0	919.0	1
n/a	0.2	FACES	1	n/a	1	1	n/a	0
244.94580078125	0.2	SCRAMBLED	0	0.517266391176236	0	0	922.0	1
246.3056640625	0.2	SCRAMBLED	0	0.421278875670396	0	0	930.0	1
247.435546875	0.2	FACES	1	0.46018123039903	0	0	938.0	1
248.85546875	0.2	FACES	1	0.383838679590554	0	0	946.0	1
250.03564453125	0.2	FACES	1	0.41394876407503	0	0	954.0	1
n/a	0.2	SCRAMBLED	0	0.527602017562458	1	0	n/a	1
n/a	0.2	FACES	1	0.554458165177493	1	0	n/a	1
254.1953125	0.2	SCRAMBLED	0	0.64525085196874	0	0	962.0	1
255.705078125	0.2	SCRAMBLED	0	0.447064061503625	0	0	968.0	1
257.11474609375	0.2	SCRAMBLED	0	0.408970059554122	0	0	976.0	1
258.21484375	0.2	FACES	1	0.375807673615782	0	0	984.0	1
259.36474609375	0.2	SCRAMBLED	0	0.363581564244669	0	0	992.0	1
260.49462890625	0.2	SCRAMBLED	0	0.446240314406168	0	0	1000.0	1
261.634765625	0.2	FACES	1	0.425298906397074	0	0	1008.0	1
262.8642578125	0.2	FACES	1	0.501207699577208	0	0	1016.0	1
n/a	0.2	SCRAMBLED	0	0.459031485912419	1	0	n/a	1
n/a	0.2	SCRAMBLED	0	0.7737626437156	1	0	n/a	1
n/a	0.2	SCRAMBLED	0	0.423547274149314	1	0	n/a	1
n/a	0.2	SCRAMBLED	0	n/a	1	1	n/a	0
270.18408203125	0.2	FACES	1	0.65322148805717	0	0	1020.0	1
271.5537109375	0.2	FACES	1	0.429045159693487	0	0	1028.0	1
272.73388671875	0.2	SCRAMBLED	0	0.557985577634099	0	0	1036.0	1
274.25341796875	0.2	SCRAMBLED	0	0.419725860345352	0	0	1042.0	1
275.34326171875	0.2	SCRAMBLED	0	0.54652767506559	0	0	1050.0	1
276.71337890625	0.2	FACES	1	0.380498111931956	0	0	1058.0	1
n/a	0.2	FACES	1	n/a	1	1	n/a	0
n/a	0.2	FACES	1	n/a	1	1	n/a	0
n/a	0.2	FACES	1	0.957967164817092	1	0	n/a	1
n/a	0.2	SCRAMBLED	0	0.56673317415698	1	0	n/a	1
283.44287109375	0.2	SCRAMBLED	0	0.413259339973592	0	0	1066.0	1
284.5830078125	0.2	SCRAMBLED	0	0.457434702420869	0	0	1074.0	1
285.91259765625	0.2	SCRAMBLED	0	0.253123688842606	0	0	1082.0	1
286.86279296875	0.2	SCRAMBLED	0	0.413106302312372	0	0	1092.0	1
287.95263671875	0.2	FACES	1	n/a	0	1	1100.0	0
n/a	0.2	FACES	1	0.323891684351111	1	0	n/a	1
n/a	0.2	FACES	1	0.388745543947152	1	0	n/a	1
n/a	0.2	SCRAMBLED	0	0.458511701195675	1	0	n/a	1
292.572265625	0.2	FACES	1	0.491476677601895	0	0	1108.0	1
293.90185546875	0.2	SCRAMBLED	0	0.473227766527998	0	0	1116.0	1
295.07177734375	0.2	FACES	1	0.412030510942714	0	0	1124.0	1
296.31201171875	0.2	SCRAMBLED	0	0.448808751218166	0	0	1132.0	1
297.61181640625	0.2	FACES	1	0.573738193914323	0	0	1140.0	1
299.091796875	0.2	SCRAMBLED	0	0.439517825718212	0	0	1148.0	1
n/a	0.2	SCRAMBLED	0	0.488455164795596	1	0	n/a	1
n/a	0.2	SCRAMBLED	0	0.318086817933363	1	0	n/a	1
303.04150390625	0.2	FACES	1	0.51908533585447	0	0	1156.0	1
304.30126953125	0.2	FACES	1	0.817127238591638	0	0	1164.0	1
305.861328125	0.2	FACES	1	0.622679155185324	0	0	1170.0	1
307.2109375	0.2	FACES	1	0.536467939062277	0	0	1178.0	1
308.6708984375	0.2	SCRAMBLED	0	0.51844752800389	0	0	1186.0	1
309.95068359375	0.2	FACES	1	0.542183759898762	0	0	1194.0	1
311.45068359375	0.2	FACES	1	0.574001104767376	0	0	1201.0	1
312.900390625	0.2	FACES	1	0.897021953507647	0	0	1209.0	1
314.59033203125	0.2	FACES	1	0.607520578585536	0	0	1215.0	1
316.14013671875	0.2	FACES	1	0.573396198509727	0	0	1221.0	1
n/a	0.2	FACES	1	0.532244159967377	1	0	n/a	1
n/a	0.2	SCRAMBLED	0	0.557997047912068	1	0	n/a	1
n/a	0.2	SCRAMBLED	0	0.802765544489375	1	0	n/a	1
321.6298828125	0.2	SCRAMBLED	0	0.567674340687518	0	0	1229.0	1
323.15966796875	0.2	FACES	1	0.513471540125465	0	0	1235.0	1
324.4296875	0.2	FACES	1	0.702247269018699	0	0	1243.0	1
325.8095703125	0.2	SCRAMBLED	0	0.633162084090145	0	0	1251.0	1
327.15966796875	0.2	FACES	1	0.631987587952608	0	0	1259.0	1
328.7294921875	0.2	SCRAMBLED	0	0.463892167310405	0	0	1265.0	1
330.09912109375	0.2	FACES	1	0.56371317059893	0	0	1273.0	1
331.5791015625	0.2	FACES	1	0.558234905263816	0	0	1281.0	1
332.94921875	0.2	FACES	1	0.49328475569564	0	0	1289.0	1
334.19921875	0.2	FACES	1	0.549067738029407	0	0	1297.0	1
335.5390625	0.2	FACES	1	0.436926448350277	0	0	1305.0	1
336.8388671875	0.2	FACES	1	0.42371238578562	0	0	1313.0	1
338.16845703125	0.2	SCRAMBLED	0	0.428522356480244	0	0	1321.0	1
339.28857421875	0.2	SCRAMBLED	0	0.553205791886285	0	0	1329.0	1
340.55859375	0.2	SCRAMBLED	0	0.42523219767827	0	0	1337.0	1
n/a	0.2	SCRAMBLED	0	0.417029439373437	1	0	n/a	1
n/a	0.2	SCRAMBLED	0	0.438966648656788	1	0	n/a	1
n/a	0.2	SCRAMBLED	0	0.397789858459873	1	0	n/a	1
n/a	0.2	FACES	1	0.367715392207174	1	0	n/a	1
346.39794921875	0.2	FACES	1	0.448569082771428	0	0	1345.0	1
347.7177734375	0.2	SCRAMBLED	0	0.508395640084927	0	0	1353.0	1
349.1279296875	0.2	SCRAMBLED	0	0.498057598906598	0	0	1361.0	1
350.517578125	0.2	SCRAMBLED	0	0.440998095331452	0	0	1369.0	1
351.61767578125	0.2	SCRAMBLED	0	0.737815696775215	0	0	1377.0	1
353.24755859375	0.2	SCRAMBLED	0	0.453732519144978	0	0	1383.0	1
354.63720703125	0.2	FACES	1	0.648490601917729	0	0	1391.0	1
356.037109375	0.2	SCRAMBLED	0	0.457277740715654	0	0	1399.0	1
357.45703125	0.2	SCRAMBLED	0	0.649025177259318	0	0	1407.0	1
358.787109375	0.2	FACES	1	n/a	0	1	1415.0	0
360.8271484375	0.2	SCRAMBLED	0	n/a	0	1	1417.0	0
362.7568359375	0.2	SCRAMBLED	0	0.603245786936895	0	0	1419.0	1
n/a	0.2	FACES	1	0.473217201797524	1	0	n/a	1
n/a	0.2	FACES	1	0.445020842700615	1	0	n/a	1
366.99658203125	0.2	FACES	1	0.418900000302528	0	0	1427.0	1
368.2265625	0.2	FACES	1	0.432695726714883	0	0	1435.0	1
369.41650390625	0.2	SCRAMBLED	0	0.467506814249646	0	0	1443.0	1
370.576171875	0.2	SCRAMBLED	0	0.502422945388389	0	0	1451.0	1
371.81591796875	0.2	FACES	1	0.467322384247382	0	0	1459.0	1
372.93603515625	0.2	FACES	1	0.350023393333686	0	0	1467.0	1
374.11572265625	0.2	SCRAMBLED	0	0.543943542081252	0	0	1475.0	1
375.60595703125	0.2	SCRAMBLED	0	0.490724166971631	0	0	1483.0	1
n/a	0.2	FACES	1	0.492716976918018	1	0	n/a	1
n/a	0.2	FACES	1	0.412408124579088	1	0	n/a	1
379.275390625	0.2	SCRAMBLED	0	0.56921498018346	0	0	1491.0	1
380.58544921875	0.2	SCRAMBLED	0	0.442203078262537	0	0	1499.0	1
381.75537109375	0.2	SCRAMBLED	0	0.32199214587672	0	0	1507.0	1
382.88525390625	0.2	FACES	1	0.423899532437645	0	0	1515.0	1
383.97509765625	0.2	FACES	1	0.432184997480363	0	0	1523.0	1
385.14501953125	0.2	SCRAMBLED	0	0.482486695986154	0	0	1531.0	1
386.294921875	0.2	SCRAMBLED	0	0.467454292447655	0	0	1539.0	1
387.544921875	0.2	SCRAMBLED	0	0.363197913618933	0	0	1547.0	1
n/a	0.2	FACES	1	0.455082087952178	1	0	n/a	1
n/a	0.2	FACES	1	0.343703873633785	1	0	n/a	1
n/a	0.2	FACES	1	0.393795183084876	1	0	n/a	1
392.4443359375	0.2	SCRAMBLED	0	0.428623174189852	0	0	1555.0	1
393.66455078125	0.2	SCRAMBLED	0	0.413418414627813	0	0	1563.0	1
394.9345703125	0.2	FACES	1	0.56323172075281	0	0	1571.0	1
396.21435546875	0.2	SCRAMBLED	0	0.467026269958296	0	0	1579.0	1
397.5341796875	0.2	FACES	1	0.403989242087846	0	0	1587.0	1
n/a	0.2	FACES	1	0.338868849441496	1	0	n/a	1
n/a	0.2	FACES	1	0.387298175923206	1	0	n/a	1
401.1337890625	0.2	FACES	1	0.290461557968229	0	0	1595.0	1
402.28369140625	0.2	FACES	1	0.292403657207615	0	0	1603.0	1
403.34375	0.2	SCRAMBLED	0	0.488167200437601	0	0	1611.0	1
n/a	0.2	FACES	1	0.618984518139769	1	0	n/a	1
n/a	0.2	SCRAMBLED	0	0.49687223618821	1	0	n/a	1
407.5732421875	0.2	SCRAMBLED	0	0.562695334312593	0	0	1619.0	1
n/a	0.2	SCRAMBLED	0	0.318393496952922	1	0	n/a	1
n/a	0.2	SCRAMBLED	0	0.41236797860256	1	0	n/a	1
n/a	0.2	SCRAMBLED	0	0.319078091466508	1	0	n/a	1
412.4931640625	0.2	SCRAMBLED	0	0.334022053120862	0	0	1627.0	1
413.60302734375	0.2	FACES	1	n/a	0	1	1635.0	0
n/a	0.2	FACES	1	0.558724203194288	1	0	n/a	1
n/a	0.2	FACES	1	0.325412703637994	1	0	n/a	1
n/a	0.2	FACES	1	0.292472177028685	1	0	n/a	1
418.42236328125	0.2	SCRAMBLED	0	0.497335575066245	0	0	1643.0	1
419.7822265625	0.2	FACES	1	0.404006749351538	0	0	1651.0	1
421.12255859375	0.2	SCRAMBLED	0	0.51296201828518	0	0	1659.0	1
422.33203125	0.2	SCRAMBLED	0	1.0276946853337	0	0	1667.0	1
424.0419921875	0.2	SCRAMBLED	0	0.527517197868292	0	0	1671.0	1
n/a	0.2	SCRAMBLED	0	0.989375201861549	1	0	n/a	1
427.171875	0.2	SCRAMBLED	0	0.818175863514625	0	0	1678.0	1
428.671875	0.2	FACES	1	0.626904141678096	0	0	1685.0	1
429.96142578125	0.2	FACES	1	0.742899746746843	0	0	1693.0	1
431.49169921875	0.2	SCRAMBLED	0	0.573648544632306	0	0	1699.0	1
432.94140625	0.2	SCRAMBLED	0	0.463425206238753	0	0	1707.0	1
434.0615234375	0.2	FACES	1	0.462243163867242	0	0	1715.0	1
435.4111328125	0.2	FACES	1	0.607023130723974	0	0	1723.0	1
436.78125	0.2	FACES	1	0.451683867053362	0	0	1731.0	1
437.9609375	0.2	FACES	1	0.447727828403004	0	0	1739.0	1
439.220703125	0.2	FACES	1	0.533616971184529	0	0	1747.0	1
440.6806640625	0.2	FACES	1	0.477406871905259	0	0	1755.0	1
n/a	0.2	SCRAMBLED	0	0.497642555939819	1	0	n/a	1
n/a	0.2	SCRAMBLED	0	0.334069443477347	1	0	n/a	1
n/a	0.2	FACES	1	0.513849153765477	1	0	n/a	1
n/a	0.2	SCRAMBLED	0	0.474659438379604	1	0	n/a	1
n/a	0.2	SCRAMBLED	0	0.448619793474791	1	0	n/a	1
472.88818359375	0.2	SCRAMBLED	0	0.299430108272645	0	0	1763.0	1
473.95849609375	0.2	SCRAMBLED	0	0.307051504569245	0	0	1771.0	1
475.12841796875	0.2	FACES	1	n/a	0	1	1779.0	0
n/a	0.2	FACES	1	0.418915092774114	1	0	n/a	1
n/a	0.2	FACES	1	0.246872085266659	1	0	n/a	1
478.578125	0.2	SCRAMBLED	0	0.456633594028972	0	0	1787.0	1
479.748046875	0.2	SCRAMBLED	0	0.407403461005742	0	0	1795.0	1
480.81787109375	0.2	FACES	1	0.431353704145295	0	0	1803.0	1
482.09765625	0.2	FACES	1	0.413177538783202	0	0	1811.0	1
483.4375	0.2	SCRAMBLED	0	0.488915787027508	0	0	1819.0	1
n/a	0.2	FACES	1	0.417854393872403	1	0	n/a	1
485.95751953125	0.2	FACES	1	0.348703405768902	0	0	1827.0	1
n/a	0.2	SCRAMBLED	0	0.488408679979329	1	0	n/a	1
488.58740234375	0.2	SCRAMBLED	0	0.562340661228518	0	0	1835.0	1
489.95703125	0.2	SCRAMBLED	0	0.438150447793305	0	0	1843.0	1
n/a	0.2	FACES	1	0.452971556729608	1	0	n/a	1
n/a	0.2	SCRAMBLED	0	0.987623267759773	1	0	n/a	1
n/a	0.2	FACES	1	0.568888077250449	1	0	n/a	1
n/a	0.2	FACES	1	0.867360719126737	1	0	n/a	1
n/a	0.2	FACES	1	0.473095858324086	1	0	n/a	1
n/a	0.2	SCRAMBLED	0	0.880132874121045	1	0	n/a	1
n/a	0.2	FACES	1	0.751849884243711	1	0	n/a	1
501.666015625	0.2	SCRAMBLED	0	0.533642930233327	0	0	1850.0	1
503.166015625	0.2	FACES	1	0.533404771031201	0	0	1857.0	1
504.43603515625	0.2	SCRAMBLED	0	0.712096314113296	0	0	1865.0	1
505.98583984375	0.2	SCRAMBLED	0	n/a	0	1	1871.0	0
n/a	0.2	SCRAMBLED	0	0.678872049044003	1	0	n/a	1
n/a	0.2	SCRAMBLED	0	0.572424847036018	1	0	n/a	1
n/a	0.2	FACES	1	0.621551143856777	1	0	n/a	1
511.50537109375	0.2	SCRAMBLED	0	0.722338669023884	0	0	1879.0	1
512.955078125	0.2	SCRAMBLED	0	0.732156925481831	0	0	1887.0	1
514.47509765625	0.2	SCRAMBLED	0	0.732910643513605	0	0	1893.0	1
515.9951171875	0.2	FACES	1	0.648704311315669	0	0	1899.0	1
517.31494140625	0.2	FACES	1	0.611600979198556	0	0	1907.0	1
n/a	0.2	SCRAMBLED	0	0.713415999831341	1	0	n/a	1
n/a	0.2	SCRAMBLED	0	0.614173943751666	1	0	n/a	1
n/a	0.2	SCRAMBLED	0	n/a	1	1	n/a	0
523.63427734375	0.2	SCRAMBLED	0	0.507518767488364	0	0	1911.0	1
524.984375	0.2	FACES	1	0.697622935724212	0	0	1919.0	1
526.5341796875	0.2	FACES	1	0.803375884039269	0	0	1925.0	1
528.1640625	0.2	FACES	1	0.987909722873155	0	0	1931.0	1
529.97412109375	0.2	SCRAMBLED	0	0.647939424856304	0	0	1936.0	1
531.423828125	0.2	FACES	1	n/a	0	1	1944.0	0
533.49365234375	0.2	FACES	1	0.748483961229795	0	0	1946.0	1
534.90380859375	0.2	FACES	1	0.592335439236194	0	0	1954.0	1
536.42333984375	0.2	SCRAMBLED	0	0.692881786708313	0	0	1960.0	1
538.0634765625	0.2	FACES	1	0.63891322130803	0	0	1966.0	1
539.51318359375	0.2	SCRAMBLED	0	0.828685657023016	0	0	1974.0	1
541.0830078125	0.2	SCRAMBLED	0	0.951469553954666	0	0	1980.0	1
542.76318359375	0.2	SCRAMBLED	0	0.541382651503227	0	0	1986.0	1
n/a	0.2	SCRAMBLED	0	0.448161887889	1	0	n/a	1
n/a	0.2	FACES	1	0.594460157382855	1	0	n/a	1
n/a	0.2	SCRAMBLED	0	0.686810689090635	1	0	n/a	1
548.3525390625	0.2	SCRAMBLED	0	0.952595754188224	0	0	1994.0	1
549.97265625	0.2	SCRAMBLED	0	n/a	0	1	2000.0	0
551.84228515625	0.2	FACES	1	0.436984101590497	0	0	2002.0	1
553.09228515625	0.2	FACES	1	0.584059029672062	0	0	2010.0	1
554.501953125	0.2	SCRAMBLED	0	0.993829292070586	0	0	2018.0	1
n/a	0.2	SCRAMBLED	0	0.503616156191129	1	0	n/a	1
n/a	0.2	SCRAMBLED	0	0.448390991605265	1	0	n/a	1
n/a	0.2	FACES	1	0.527146224922035	1	0	n/a	1
n/a	0.2	SCRAMBLED	0	0.863082305284479	1	0	n/a	1
561.79150390625	0.2	FACES	1	0.437868218574295	0	0	2023.0	1
563.01123046875	0.2	FACES	1	0.498795922616409	0	0	2031.0	1
564.29150390625	0.2	SCRAMBLED	0	0.533575014113012	0	0	2039.0	1
565.6611328125	0.2	FACES	1	0.488434639035404	0	0	2047.0	1
566.93115234375	0.2	SCRAMBLED	0	0.683344552071503	0	0	2055.0	1
568.40087890625	0.2	FACES	1	0.647092133502156	0	0	2063.0	1
569.8310546875	0.2	FACES	1	0.708853847525461	0	0	2071.0	1
571.30078125	0.2	SCRAMBLED	0	0.587642284273898	0	0	2079.0	1
572.65087890625	0.2	FACES	1	0.53257227029826	0	0	2087.0	1
573.970703125	0.2	SCRAMBLED	0	0.714397614181507	0	0	2095.0	1
575.50048828125	0.2	FACES	1	0.638104868532537	0	0	2101.0	1
576.8603515625	0.2	FACES	1	0.611150921697117	0	0	2109.0	1
n/a	0.2	FACES	1	0.511842760595755	1	0	n/a	1
n/a	0.2	SCRAMBLED	0	0.493617695621651	1	0	n/a	1
580.76025390625	0.2	FACES	1	0.407593927997368	0	0	2117.0	1
582.06005859375	0.2	FACES	1	0.383407336750679	0	0	2125.0	1
583.27978515625	0.2	FACES	1	0.958152802220866	0	0	2133.0	1
585.02978515625	0.2	SCRAMBLED	0	0.503950001660996	0	0	2138.0	1
586.40966796875	0.2	SCRAMBLED	0	n/a	0	1	2146.0	0
587.8095703125	0.2	SCRAMBLED	0	0.592571485492954	0	0	2154.0	1
n/a	0.2	SCRAMBLED	0	0.418978783003695	1	0	n/a	1
n/a	0.2	SCRAMBLED	0	0.357935772477504	1	0	n/a	1
591.59912109375	0.2	FACES	1	0.372133260487317	0	0	2162.0	1
592.88916015625	0.2	FACES	1	0.373890024176944	0	0	2170.0	1
594.119140625	0.2	SCRAMBLED	0	0.438807272155827	0	0	2178.0	1
595.4189453125	0.2	FACES	1	0.593643956519372	0	0	2186.0	1
596.96875	0.2	FACES	1	0.522391190825147	0	0	2192.0	1
598.31884765625	0.2	FACES	1	0.538314653884299	0	0	2200.0	1
599.53857421875	0.2	FACES	1	0.457113534626842	0	0	2208.0	1
600.95849609375	0.2	SCRAMBLED	0	0.539866461811471	0	0	2216.0	1
602.1884765625	0.2	SCRAMBLED	0	0.551791023601254	0	0	2224.0	1
603.58837890625	0.2	FACES	1	0.592579333577305	0	0	2232.0	1
604.87841796875	0.2	SCRAMBLED	0	0.683020667631354	0	0	2240.0	1
606.25830078125	0.2	SCRAMBLED	0	0.437189962904085	0	0	2248.0	1
607.60791015625	0.2	FACES	1	0.932065163255174	0	0	2256.0	1
609.39794921875	0.2	FACES	1	0.652842365172546	0	0	2261.0	1
610.8779296875	0.2	FACES	1	0.518575210313429	0	0	2269.0	1
612.23779296875	0.2	FACES	1	0.637433857242286	0	0	2277.0	1
613.58740234375	0.2	SCRAMBLED	0	0.637342095018539	0	0	2285.0	1
615.1474609375	0.2	FACES	1	1.08807181601878	0	0	2291.0	1
616.9873046875	0.2	SCRAMBLED	0	0.471846503529378	0	0	2295.0	1
618.287109375	0.2	SCRAMBLED	0	0.462771400369093	0	0	2303.0	1
619.55712890625	0.2	FACES	1	0.403539184586407	0	0	2311.0	1
n/a	0.2	FACES	1	0.667326911992859	1	0	n/a	1
n/a	0.2	SCRAMBLED	0	0.477022315728391	1	0	n/a	1
623.45703125	0.2	FACES	1	0.450899058530922	0	0	2319.0	1
624.74658203125	0.2	FACES	1	0.359219538113393	0	0	2327.0	1
625.896484375	0.2	SCRAMBLED	0	0.623533690926706	0	0	2335.0	1
627.1767578125	0.2	FACES	1	0.622555396916141	0	0	2343.0	1
628.54638671875	0.2	FACES	1	0.462326776159898	0	0	2351.0	1
629.7763671875	0.2	SCRAMBLED	0	0.527057481187512	0	0	2359.0	1
631.076171875	0.2	FACES	1	0.477910658602923	0	0	2367.0	1
632.49609375	0.2	SCRAMBLED	0	0.534700610642176	0	0	2375.0	1
n/a	0.2	FACES	1	0.457642978530203	1	0	n/a	1
n/a	0.2	FACES	1	0.503562728838006	1	0	n/a	1
n/a	0.2	SCRAMBLED	0	0.767950532914256	1	0	n/a	1
n/a	0.2	SCRAMBLED	0	0.582135041397123	1	0	n/a	1
n/a	0.2	FACES	1	0.491106308349117	1	0	n/a	1
640.435546875	0.2	FACES	1	0.544435556654207	0	0	2383.0	1
641.7353515625	0.2	FACES	1	0.610713541871519	0	0	2391.0	1
643.22509765625	0.2	SCRAMBLED	0	0.598556254168216	0	0	2399.0	1
644.775390625	0.2	FACES	1	0.453379959009908	0	0	2405.0	1
646.05517578125	0.2	SCRAMBLED	0	0.384145962310868	0	0	2413.0	1
647.34521484375	0.2	FACES	1	0.513908014403569	0	0	2421.0	1
n/a	0.2	FACES	1	0.642779610672733	1	0	n/a	1
n/a	0.2	FACES	1	0.732569251806126	1	0	n/a	1
651.74462890625	0.2	SCRAMBLED	0	n/a	0	1	2429.0	0
653.61474609375	0.2	FACES	1	0.467227905377513	0	0	2431.0	1
n/a	0.2	SCRAMBLED	0	0.842785647662822	1	0	n/a	1
656.46435546875	0.2	SCRAMBLED	0	0.888791726909403	0	0	2438.0	1
658.10400390625	0.2	FACES	1	0.546592270842666	0	0	2444.0	1
659.30419921875	0.2	SCRAMBLED	0	0.667389998521685	0	0	2452.0	1
660.80419921875	0.2	FACES	1	0.548072842302645	0	0	2459.0	1
n/a	0.2	FACES	1	0.507082896911015	1	0	n/a	1
n/a	0.2	SCRAMBLED	0	0.411993383459048	1	0	n/a	1
664.50390625	0.2	SCRAMBLED	0	0.367769725104154	0	0	2467.0	1
n/a	0.2	SCRAMBLED	0	0.333576825207274	1	0	n/a	1
666.8935546875	0.2	FACES	1	0.373272138393077	0	0	2475.0	1
668.1435546875	0.2	SCRAMBLED	0	0.488867189269513	0	0	2483.0	1
669.36328125	0.2	FACES	1	0.447150390442403	0	0	2491.0	1
670.4931640625	0.2	SCRAMBLED	0	0.392091243047616	0	0	2499.0	1
671.76318359375	0.2	SCRAMBLED	0	0.392976265578909	0	0	2507.0	1
672.94287109375	0.2	FACES	1	0.408819134841906	0	0	2515.0	1
n/a	0.2	FACES	1	0.450867062492762	1	0	n/a	1
n/a	0.2	FACES	1	0.482915020329528	1	0	n/a	1
718.82958984375	0.2	FACES	1	0.433872637651803	0	0	2523.0	1
n/a	0.2	SCRAMBLED	0	0.474622009049199	1	0	n/a	1
n/a	0.2	FACES	1	0.538272394962405	1	0	n/a	1
722.84912109375	0.2	SCRAMBLED	0	0.599295483425522	0	0	2531.0	1
724.34912109375	0.2	SCRAMBLED	0	0.653016230440699	0	0	2538.0	1
725.7490234375	0.2	FACES	1	0.461893924071774	0	0	2546.0	1
727.138671875	0.2	SCRAMBLED	0	0.80871922267761	0	0	2554.0	1
728.638671875	0.2	FACES	1	0.461556758255028	0	0	2561.0	1
729.8388671875	0.2	FACES	1	0.536511707232421	0	0	2569.0	1
731.33837890625	0.2	FACES	1	0.383338515082869	0	0	2576.0	1
732.478515625	0.2	FACES	1	0.482013396074763	0	0	2584.0	1
733.83837890625	0.2	FACES	1	0.41784382914193	0	0	2592.0	1
735.05810546875	0.2	FACES	1	0.423749211418908	0	0	2600.0	1
736.2783203125	0.2	SCRAMBLED	0	0.453617514511279	0	0	2608.0	1
737.578125	0.2	FACES	1	0.472523853652092	0	0	2616.0	1
738.89794921875	0.2	FACES	1	0.428204207179078	0	0	2624.0	1
740.078125	0.2	FACES	1	1.14180554256018	0	0	2632.0	1
741.9775390625	0.2	SCRAMBLED	0	0.566586173485121	0	0	2636.0	1
743.34765625	0.2	FACES	1	0.532783564900456	0	0	2644.0	1
n/a	0.2	SCRAMBLED	0	0.752503086408979	1	0	n/a	1
n/a	0.2	SCRAMBLED	0	0.583297463559575	1	0	n/a	1
n/a	0.2	SCRAMBLED	0	0.628051773215702	1	0	n/a	1
749.13720703125	0.2	FACES	1	0.560985357282334	0	0	2652.0	1
750.4873046875	0.2	FACES	1	0.518730059073278	0	0	2660.0	1
751.90673828125	0.2	FACES	1	n/a	0	1	2668.0	0
754.0068359375	0.2	FACES	1	0.662049074679089	0	0	2670.0	1
n/a	0.2	SCRAMBLED	0	0.574035515604919	1	0	n/a	1
n/a	0.2	FACES	1	0.53698108309618	1	0	n/a	1
n/a	0.2	FACES	1	0.421766664352617	1	0	n/a	1
759.49658203125	0.2	SCRAMBLED	0	0.488492594122363	0	0	2677.0	1
760.91650390625	0.2	FACES	1	0.418500049803697	0	0	2685.0	1
n/a	0.2	SCRAMBLED	0	0.404268452810356	1	0	n/a	1
n/a	0.2	SCRAMBLED	0	0.573037299534917	1	0	n/a	1
764.93603515625	0.2	FACES	1	0.403964792280021	0	0	2693.0	1
766.255859375	0.2	SCRAMBLED	0	0.41876899764975	0	0	2701.0	1
767.3857421875	0.2	SCRAMBLED	0	0.337508414053445	0	0	2709.0	1
768.5556640625	0.2	SCRAMBLED	0	0.294477664650913	0	0	2717.0	1
769.65576171875	0.2	FACES	1	0.353303289255564	0	0	2725.0	1
770.70556640625	0.2	SCRAMBLED	0	0.46226127483169	0	0	2733.0	1
771.82568359375	0.2	FACES	1	0.511025654184778	0	0	2741.0	1
773.17529296875	0.2	SCRAMBLED	0	0.413974421280727	0	0	2749.0	1
774.39501953125	0.2	FACES	1	0.323735326343012	0	0	2757.0	1
775.625	0.2	SCRAMBLED	0	n/a	0	1	2765.0	0
n/a	0.2	FACES	1	0.31747164879198	1	0	n/a	1
n/a	0.2	SCRAMBLED	0	0.363177387855103	1	0	n/a	1
n/a	0.2	SCRAMBLED	0	0.337101822868135	1	0	n/a	1
780.125	0.2	SCRAMBLED	0	0.417859525310632	0	0	2773.0	1
781.4248046875	0.2	FACES	1	0.418509105285921	0	0	2781.0	1
782.78466796875	0.2	SCRAMBLED	0	0.593594151363504	0	0	2789.0	1
784.13427734375	0.2	FACES	1	0.472370212290116	0	0	2797.0	1
785.38427734375	0.2	FACES	1	0.368297961609642	0	0	2805.0	1
786.58447265625	0.2	SCRAMBLED	0	0.503217111239792	0	0	2813.0	1
n/a	0.2	SCRAMBLED	0	n/a	1	1	n/a	0
789.98388671875	0.2	FACES	1	0.412381561825896	0	0	2817.0	1
791.27392578125	0.2	FACES	1	0.447381908954412	0	0	2825.0	1
792.6337890625	0.2	SCRAMBLED	0	n/a	0	1	2833.0	0
n/a	0.2	SCRAMBLED	0	0.473224446184759	1	0	n/a	1
n/a	0.2	SCRAMBLED	0	0.344029871019302	1	0	n/a	1
796.87353515625	0.2	SCRAMBLED	0	0.277944767592999	0	0	2840.0	1
798.013671875	0.2	SCRAMBLED	0	0.448697066927707	0	0	2848.0	1
799.3232421875	0.2	SCRAMBLED	0	0.40850279663573	0	0	2856.0	1
800.39306640625	0.2	FACES	1	0.532449719430588	0	0	2864.0	1
801.88330078125	0.2	SCRAMBLED	0	0.477199501343421	0	0	2872.0	1
803.26318359375	0.2	FACES	1	0.564004757146904	0	0	2880.0	1
804.69287109375	0.2	FACES	1	0.452786221176211	0	0	2888.0	1
806.03271484375	0.2	FACES	1	0.358732956829044	0	0	2896.0	1
807.1826171875	0.2	FACES	1	0.773452040652046	0	0	2904.0	1
n/a	0.2	FACES	1	n/a	1	1	n/a	0
n/a	0.2	FACES	1	0.561068365877873	1	0	n/a	1
n/a	0.2	FACES	1	0.488827948844119	1	0	n/a	1
813.40234375	0.2	SCRAMBLED	0	0.584721891027584	0	0	2911.0	1
814.7919921875	0.2	SCRAMBLED	0	0.409482599890907	0	0	2919.0	1
816.14208984375	0.2	FACES	1	0.548435061620694	0	0	2927.0	1
817.56201171875	0.2	FACES	1	0.507345807764068	0	0	2935.0	1
818.8916015625	0.2	SCRAMBLED	0	0.997970062573586	0	0	2943.0	1
820.54150390625	0.2	SCRAMBLED	0	n/a	0	1	2949.0	0
822.4814453125	0.2	SCRAMBLED	0	0.774472593580867	0	0	2951.0	1
n/a	0.2	SCRAMBLED	0	0.608298746421497	1	0	n/a	1
n/a	0.2	FACES	1	0.551184306244977	1	0	n/a	1
n/a	0.2	SCRAMBLED	0	0.558003084901429	1	0	n/a	1
828.03125	0.2	FACES	1	0.446939095840207	0	0	2958.0	1
829.37109375	0.2	SCRAMBLED	0	0.463672722769843	0	0	2966.0	1
830.55078125	0.2	SCRAMBLED	0	0.446494471627375	0	0	2974.0	1
831.70068359375	0.2	SCRAMBLED	0	0.417135388524912	0	0	2982.0	1
833.0009765625	0.2	SCRAMBLED	0	0.373204524119501	0	0	2990.0	1
834.29052734375	0.2	SCRAMBLED	0	0.408886749111844	0	0	2998.0	1
835.6005859375	0.2	FACES	1	0.553920873189782	0	0	3006.0	1
837.04052734375	0.2	SCRAMBLED	0	0.452695364496321	0	0	3014.0	1
838.1904296875	0.2	SCRAMBLED	0	0.433261090700398	0	0	3022.0	1
839.42041015625	0.2	FACES	1	0.442488325970771	0	0	3030.0	1
840.5302734375	0.2	SCRAMBLED	0	0.437223770037235	0	0	3038.0	1
841.72998046875	0.2	SCRAMBLED	0	0.397053345852328	0	0	3046.0	1
843.009765625	0.2	FACES	1	0.457968372214964	0	0	3054.0	1
844.23974609375	0.2	FACES	1	0.558762839918927	0	0	3062.0	1
845.5	0.2	FACES	1	0.496642528774828	0	0	3070.0	1
846.64990234375	0.2	FACES	1	0.381494818753708	0	0	3078.0	1
n/a	0.2	SCRAMBLED	0	0.583264260123542	1	0	n/a	1
849.4794921875	0.2	SCRAMBLED	0	n/a	0	1	3085.0	0
850.8994140625	0.2	SCRAMBLED	0	0.59495519045231	0	0	3093.0	1
852.41943359375	0.2	SCRAMBLED	0	0.373712536711537	0	0	3099.0	1
853.4892578125	0.2	SCRAMBLED	0	0.532514918908419	0	0	3107.0	1
854.76904296875	0.2	FACES	1	0.542443350408575	0	0	3115.0	1
855.96875	0.2	FACES	1	0.502235496889625	0	0	3123.0	1
857.2890625	0.2	FACES	1	0.423150342146982	0	0	3131.0	1
858.46875	0.2	FACES	1	0.351967605518439	0	0	3139.0	1
859.65869140625	0.2	FACES	1	0.305851653080026	0	0	3147.0	1
860.638671875	0.2	FACES	1	0.28670353254347	0	0	3157.0	1
861.7587890625	0.2	SCRAMBLED	0	n/a	0	1	3165.0	0
n/a	0.2	FACES	1	0.26350127229307	1	0	n/a	1
n/a	0.2	FACES	1	0.371252765693498	1	0	n/a	1
n/a	0.2	SCRAMBLED	0	0.688050384706003	1	0	n/a	1
866.408203125	0.2	FACES	1	0.536988327483414	0	0	3173.0	1
867.75830078125	0.2	SCRAMBLED	0	0.597730092275015	0	0	3181.0	1
869.2177734375	0.2	FACES	1	0.443630524223408	0	0	3189.0	1
870.51806640625	0.2	SCRAMBLED	0	0.628034567795112	0	0	3197.0	1
872.02783203125	0.2	SCRAMBLED	0	0.594234977706947	0	0	3203.0	1
873.58740234375	0.2	SCRAMBLED	0	0.798984880359058	0	0	3209.0	1
875.09765625	0.2	FACES	1	0.922481443805736	0	0	3215.0	1
876.9873046875	0.2	SCRAMBLED	0	0.588576508263941	0	0	3220.0	1
n/a	0.2	FACES	1	0.621422254153003	1	0	n/a	1
n/a	0.2	SCRAMBLED	0	0.507057239708956	1	0	n/a	1
n/a	0.2	SCRAMBLED	0	0.688014162777108	1	0	n/a	1
882.52685546875	0.2	FACES	1	0.383702545495908	0	0	3227.0	1
883.68701171875	0.2	SCRAMBLED	0	0.493733605802845	0	0	3235.0	1
884.9765625	0.2	FACES	1	0.588995475278352	0	0	3243.0	1
886.49658203125	0.2	FACES	1	0.69734070650884	0	0	3249.0	1
888.0966796875	0.2	SCRAMBLED	0	0.608205474945862	0	0	3255.0	1
889.54638671875	0.2	SCRAMBLED	0	0.564018642220617	0	0	3263.0	1
891.06640625	0.2	SCRAMBLED	0	0.329923239689379	0	0	3269.0	1
892.3662109375	0.2	SCRAMBLED	0	0.37865984889504	0	0	3277.0	1
893.6962890625	0.2	FACES	1	0.611489294908097	0	0	3285.0	1
895.1357421875	0.2	FACES	1	0.348239463190112	0	0	3293.0	1
896.255859375	0.2	SCRAMBLED	0	0.618011959275464	0	0	3301.0	1
n/a	0.2	SCRAMBLED	0	0.433942968567862	1	0	n/a	1
n/a	0.2	FACES	1	0.582782206580305	1	0	n/a	1
900.3056640625	0.2	SCRAMBLED	0	0.513503838017641	0	0	3308.0	1
n/a	0.2	FACES	1	0.576051266107243	1	0	n/a	1
n/a	0.2	FACES	1	0.933078773643501	1	0	n/a	1
n/a	0.2	SCRAMBLED	0	0.592103920720547	1	0	n/a	1
n/a	0.2	FACES	1	0.570907148096012	1	0	n/a	1
n/a	0.2	FACES	1	0.307689010569447	1	0	n/a	1
n/a	0.2	SCRAMBLED	0	0.66853944115428	1	0	n/a	1
n/a	0.2	FACES	1	0.656449164027435	1	0	n/a	1
n/a	0.2	SCRAMBLED	0	0.793195106416533	1	0	n/a	1
n/a	0.2	FACES	1	0.353982450476906	1	0	n/a	1
n/a	0.2	SCRAMBLED	0	0.620779616710934	1	0	n/a	1
n/a	0.2	SCRAMBLED	0	1.08750222613889	1	0	n/a	1
n/a	0.2	FACES	1	0.42245518290656	1	0	n/a	1
