onset	duration	trial_type	trial_type_id	response_time	bad_epoch	outliers	direction	name_direction	event_num	response_accuracy
35.87158203125	0.2	RANDOM	0	0.741996192594343	0	0	0	NONE	1.0	1
37.3134765625	0.2	RANDOM	0	0.732350301854694	0	0	0	NONE	5.0	1
38.87158203125	0.2	COHERENT	1	0.51541449983506	0	0	180	LEFT	8.0	1
40.1630859375	0.2	RANDOM	0	0.582721126997058	0	0	0	NONE	12.0	1
41.54638671875	0.2	RANDOM	0	0.508198116701351	0	0	0	NONE	16.0	1
42.65478515625	0.2	RANDOM	0	0.581064630818219	0	0	0	NONE	20.0	1
44.01318359375	0.2	COHERENT	1	0.590505874253267	0	0	0	RIGHT	24.0	1
45.50439453125	0.2	RANDOM	0	0.583208899924102	0	0	0	NONE	28.0	1
46.7880859375	0.2	COHERENT	1	0.505849200290868	0	0	180	LEFT	32.0	1
47.9462890625	0.2	COHERENT	1	0.58955658845116	0	0	0	RIGHT	36.0	1
49.36279296875	0.2	RANDOM	0	0.524814994912504	0	0	0	NONE	40.0	1
50.6376953125	0.2	RANDOM	0	0.591228478453104	0	0	0	NONE	44.0	1
52.05419921875	0.2	RANDOM	0	0.457052287989882	0	0	0	NONE	48.0	1
53.23779296875	0.2	COHERENT	1	0.548901197911164	0	0	0	RIGHT	52.0	1
54.41259765625	0.2	RANDOM	0	0.572914355706871	0	0	0	NONE	56.0	1
55.6875	0.2	RANDOM	0	0.457547606909429	0	0	0	NONE	60.0	1
56.7705078125	0.2	RANDOM	0	0.531279797236039	0	0	0	NONE	64.0	1
58.00390625	0.2	RANDOM	0	0.439749026340451	0	0	0	NONE	68.0	1
59.1455078125	0.2	RANDOM	0	0.407083935880564	0	0	0	NONE	72.0	1
60.4287109375	0.2	RANDOM	0	0.340948446687889	0	0	0	NONE	76.0	1
61.6455078125	0.2	COHERENT	1	0.573903484346374	0	0	0	RIGHT	80.0	1
62.87060546875	0.2	COHERENT	1	0.481577969566388	0	0	0	RIGHT	84.0	1
64.25390625	0.2	RANDOM	0	0.516083678411633	0	0	0	NONE	88.0	1
65.67041015625	0.2	RANDOM	0	0.66606238362192	0	0	0	NONE	92.0	1
66.9619140625	0.2	COHERENT	1	0.530822510117105	0	0	180	LEFT	96.0	1
68.39501953125	0.2	COHERENT	1	n/a	0	1	180	LEFT	100.0	0
69.6533203125	0.2	COHERENT	1	0.757608548341068	0	0	0	RIGHT	104.0	1
71.26171875	0.2	RANDOM	0	0.524552092548674	0	0	0	NONE	107.0	1
72.63671875	0.2	RANDOM	0	0.549486163215988	0	0	0	NONE	111.0	1
74.0615234375	0.2	COHERENT	1	0.423872259031214	0	0	180	LEFT	115.0	1
75.28662109375	0.2	RANDOM	0	0.508414535754127	0	0	0	NONE	119.0	1
76.61962890625	0.2	RANDOM	0	0.649303338920618	0	0	0	NONE	123.0	1
78.06982421875	0.2	RANDOM	0	0.656967953982985	0	0	0	NONE	127.0	1
79.5029296875	0.2	RANDOM	0	0.482594867457465	0	0	0	NONE	131.0	1
80.71142578125	0.2	RANDOM	0	0.49131924164567	0	0	0	NONE	135.0	1
81.90283203125	0.2	COHERENT	1	0.439402212545247	0	0	180	LEFT	139.0	1
83.0693359375	0.2	RANDOM	0	0.44075717088117	0	0	0	NONE	143.0	1
84.1611328125	0.2	COHERENT	1	0.5476884060663	0	0	0	RIGHT	147.0	1
85.4609375	0.2	COHERENT	1	0.516729011652842	0	0	180	LEFT	151.0	1
86.65283203125	0.2	RANDOM	0	0.498528682466713	0	0	0	NONE	155.0	1
88.052734375	0.2	RANDOM	0	0.424144216585773	0	0	0	NONE	159.0	1
89.37744140625	0.2	COHERENT	1	0.491022231397892	0	0	0	RIGHT	163.0	1
90.59423828125	0.2	COHERENT	1	0.598969157115789	0	0	180	LEFT	167.0	1
92.09423828125	0.2	COHERENT	1	0.465947201599192	0	0	180	LEFT	171.0	1
93.3857421875	0.2	RANDOM	0	0.549082301720773	0	0	0	NONE	175.0	1
94.53564453125	0.2	RANDOM	0	0.914752625778874	0	0	0	NONE	179.0	1
96.3271484375	0.2	RANDOM	0	0.690837384776387	0	0	0	NONE	182.0	1
97.81884765625	0.2	RANDOM	0	1.09967078345835	0	0	0	NONE	186.0	1
99.7685546875	0.2	COHERENT	1	0.583228519503791	0	0	0	RIGHT	188.0	1
101.126953125	0.2	COHERENT	1	0.523620917127573	0	0	180	LEFT	192.0	1
102.45166015625	0.2	RANDOM	0	0.758279537955787	0	0	0	NONE	196.0	1
103.91015625	0.2	COHERENT	1	0.564391006746973	0	0	180	LEFT	200.0	1
105.07666015625	0.2	RANDOM	0	0.573087611684514	0	0	0	NONE	204.0	1
106.5517578125	0.2	RANDOM	0	0.57453915871838	0	0	0	NONE	208.0	1
107.7265625	0.2	RANDOM	0	0.539445164331937	0	0	0	NONE	212.0	1
109.01806640625	0.2	RANDOM	0	0.97447734195157	0	0	0	NONE	216.0	1
110.59326171875	0.2	RANDOM	0	0.723778356706134	0	0	0	NONE	219.0	1
112.09326171875	0.2	RANDOM	0	0.815739852828756	0	0	0	NONE	223.0	1
113.58447265625	0.2	COHERENT	1	0.449025163468832	0	0	0	RIGHT	227.0	1
114.884765625	0.2	COHERENT	1	0.431984200503393	0	0	180	LEFT	231.0	1
116.01806640625	0.2	COHERENT	1	0.606229608843023	0	0	180	LEFT	235.0	1
117.326171875	0.2	COHERENT	1	0.373431225978948	0	0	0	RIGHT	239.0	1
118.42626953125	0.2	RANDOM	0	0.641040779446485	0	0	0	NONE	243.0	1
119.79248046875	0.2	COHERENT	1	0.54005488049097	0	0	180	LEFT	247.0	1
121.234375	0.2	RANDOM	0	0.757249962798596	0	0	0	NONE	251.0	1
122.79248046875	0.2	COHERENT	1	0.466214631557705	0	0	0	RIGHT	254.0	1
124.13427734375	0.2	COHERENT	1	0.682023062362532	0	0	180	LEFT	258.0	1
125.59228515625	0.2	COHERENT	1	n/a	0	1	180	LEFT	262.0	0
127.05078125	0.2	RANDOM	0	0.473992436501248	0	0	0	NONE	266.0	1
128.400390625	0.2	COHERENT	1	0.632644806833468	0	0	180	LEFT	270.0	1
129.80859375	0.2	COHERENT	1	0.682847688376114	0	0	0	RIGHT	274.0	1
131.19189453125	0.2	COHERENT	1	n/a	0	1	180	LEFT	278.0	0
132.716796875	0.2	COHERENT	1	0.641215544623265	0	0	180	LEFT	281.0	1
134.1337890625	0.2	COHERENT	1	n/a	0	1	0	RIGHT	285.0	0
135.36669921875	0.2	COHERENT	1	0.681686209276904	0	0	180	LEFT	289.0	1
136.8251953125	0.2	RANDOM	0	0.665714362467497	0	0	0	NONE	293.0	1
138.341796875	0.2	RANDOM	0	1.05820102945427	0	0	0	NONE	296.0	1
140.1748046875	0.2	COHERENT	1	0.557011932024579	0	0	0	RIGHT	298.0	1
141.408203125	0.2	RANDOM	0	0.648257464419657	0	0	0	NONE	302.0	1
142.8583984375	0.2	COHERENT	1	0.607060271649971	0	0	0	RIGHT	306.0	1
144.2666015625	0.2	COHERENT	1	0.498836860782831	0	0	180	LEFT	310.0	1
145.5166015625	0.2	COHERENT	1	0.592942022331954	0	0	0	RIGHT	314.0	1
146.8828125	0.2	COHERENT	1	0.500282974702714	0	0	180	LEFT	318.0	1
148.1328125	0.2	COHERENT	1	0.590836086866148	0	0	180	LEFT	322.0	1
149.54931640625	0.2	COHERENT	1	0.475150595364084	0	0	0	RIGHT	326.0	1
150.79931640625	0.2	RANDOM	0	0.640055574722282	0	0	0	NONE	330.0	1
152.2158203125	0.2	COHERENT	1	0.724042768268646	0	0	0	RIGHT	334.0	1
153.69091796875	0.2	RANDOM	0	0.899355179885788	0	0	0	NONE	338.0	1
155.24072265625	0.2	RANDOM	0	0.748771286111605	0	0	0	NONE	341.0	1
156.765625	0.2	RANDOM	0	0.583476028043151	0	0	0	NONE	344.0	1
158.2490234375	0.2	COHERENT	1	0.431647347417766	0	0	180	LEFT	348.0	1
159.43212890625	0.2	RANDOM	0	0.616159832563426	0	0	0	NONE	352.0	1
160.8740234375	0.2	COHERENT	1	0.606757224607918	0	0	0	RIGHT	356.0	1
162.107421875	0.2	RANDOM	0	0.565300751550694	0	0	0	NONE	360.0	1
163.548828125	0.2	RANDOM	0	0.649714746407881	0	0	0	NONE	364.0	1
164.82373046875	0.2	RANDOM	0	0.556445378940225	0	0	0	NONE	368.0	1
166.1572265625	0.2	COHERENT	1	0.524359216991797	0	0	180	LEFT	372.0	1
167.43212890625	0.2	COHERENT	1	0.541347961691827	0	0	180	LEFT	376.0	1
168.6484375	0.2	COHERENT	1	0.564771324747198	0	0	0	RIGHT	380.0	1
169.96533203125	0.2	COHERENT	1	0.441969660886116	0	0	180	LEFT	384.0	1
171.056640625	0.2	RANDOM	0	0.981056843354509	0	0	0	NONE	388.0	1
172.64013671875	0.2	RANDOM	0	0.673412179894967	0	0	0	NONE	391.0	1
173.93994140625	0.2	COHERENT	1	0.781172568688817	0	0	0	RIGHT	395.0	1
175.373046875	0.2	RANDOM	0	0.814730199090718	0	0	0	NONE	399.0	1
176.8896484375	0.2	COHERENT	1	0.990080038828637	0	0	0	RIGHT	402.0	1
178.556640625	0.2	COHERENT	1	0.690151001338108	0	0	0	RIGHT	405.0	1
179.873046875	0.2	RANDOM	0	0.655988484212685	0	0	0	NONE	409.0	1
181.3564453125	0.2	COHERENT	1	0.73351057359514	0	0	0	RIGHT	413.0	1
182.8896484375	0.2	RANDOM	0	0.607241677299044	0	0	0	NONE	416.0	1
184.14794921875	0.2	COHERENT	1	0.823020527815061	0	0	180	LEFT	420.0	1
185.84765625	0.2	COHERENT	1	0.716048242432862	0	0	0	RIGHT	423.0	1
187.46435546875	0.2	RANDOM	0	0.582138576409307	0	0	0	NONE	426.0	1
188.7724609375	0.2	RANDOM	0	0.615786456875867	0	0	0	NONE	430.0	1
190.26416015625	0.2	RANDOM	0	n/a	0	1	0	NONE	434.0	0
191.49755859375	0.2	COHERENT	1	0.539460256316488	0	0	0	RIGHT	438.0	1
192.88916015625	0.2	RANDOM	0	0.607590000292475	0	0	0	NONE	442.0	1
194.09716796875	0.2	COHERENT	1	0.664791336718281	0	0	0	RIGHT	446.0	1
195.5390625	0.2	RANDOM	0	0.525041978353784	0	0	0	NONE	450.0	1
196.68896484375	0.2	RANDOM	0	0.672306842977378	0	0	0	NONE	454.0	1
198.23876953125	0.2	COHERENT	1	0.565990153385883	0	0	180	LEFT	457.0	1
199.63037109375	0.2	COHERENT	1	n/a	0	1	180	LEFT	461.0	0
201.07177734375	0.2	COHERENT	1	0.52331696456713	0	0	180	LEFT	465.0	1
202.39697265625	0.2	COHERENT	1	0.558014643450406	0	0	0	RIGHT	469.0	1
203.80517578125	0.2	COHERENT	1	0.532293374890287	0	0	180	LEFT	473.0	1
205.0634765625	0.2	COHERENT	1	0.548426404090151	0	0	0	RIGHT	477.0	1
206.41357421875	0.2	RANDOM	0	0.80823219440208	0	0	0	NONE	481.0	1
208.12158203125	0.2	RANDOM	0	0.573604361220987	0	0	0	NONE	484.0	1
209.521484375	0.2	COHERENT	1	0.483269780987939	0	0	180	LEFT	488.0	1
210.6796875	0.2	RANDOM	0	0.864799969333035	0	0	0	NONE	492.0	1
212.29638671875	0.2	COHERENT	1	0.599730698635085	0	0	180	LEFT	495.0	1
213.521484375	0.2	COHERENT	1	0.740153159491911	0	0	180	LEFT	499.0	1
214.88818359375	0.2	RANDOM	0	0.622539817936286	0	0	0	NONE	503.0	1
216.1630859375	0.2	COHERENT	1	0.57351894059093	0	0	0	RIGHT	507.0	1
217.6376953125	0.2	COHERENT	1	0.608066906991098	0	0	0	RIGHT	511.0	1
219.0458984375	0.2	RANDOM	0	0.506774942597531	0	0	0	NONE	515.0	1
220.3544921875	0.2	RANDOM	0	0.600219678920894	0	0	0	NONE	519.0	1
221.67919921875	0.2	RANDOM	0	0.44900524204968	0	0	0	NONE	523.0	1
222.9541015625	0.2	COHERENT	1	n/a	0	1	0	RIGHT	527.0	0
224.0791015625	0.2	COHERENT	1	0.539808881149838	0	0	0	RIGHT	531.0	1
225.27099609375	0.2	RANDOM	0	0.614512693415236	0	0	0	NONE	535.0	1
226.78759765625	0.2	COHERENT	1	0.524787225661839	0	0	0	RIGHT	538.0	1
228.1123046875	0.2	COHERENT	1	0.540858377726636	0	0	0	RIGHT	542.0	1
229.37890625	0.2	COHERENT	1	0.558519319399693	0	0	180	LEFT	546.0	1
230.662109375	0.2	COHERENT	1	0.474435838995305	0	0	180	LEFT	550.0	1
231.787109375	0.2	RANDOM	0	0.439675679298034	0	0	0	NONE	554.0	1
232.90380859375	0.2	COHERENT	1	0.548434251922117	0	0	0	RIGHT	558.0	1
234.103515625	0.2	COHERENT	1	1.14800557920444	0	0	180	LEFT	562.0	1
236.02880859375	0.2	RANDOM	0	0.557820862373774	0	0	0	NONE	564.0	1
237.3369140625	0.2	RANDOM	0	0.624754113848212	0	0	0	NONE	568.0	1
238.86181640625	0.2	RANDOM	0	0.932505024876264	0	0	0	NONE	571.0	1
255.3193359375	0.2	COHERENT	1	n/a	0	1	0	RIGHT	573.0	0
256.43603515625	0.2	RANDOM	0	0.606669691100251	0	0	0	NONE	577.0	1
257.869140625	0.2	COHERENT	1	n/a	0	1	0	RIGHT	581.0	0
259.28564453125	0.2	RANDOM	0	0.866079165908104	0	0	0	NONE	585.0	1
261.02734375	0.2	COHERENT	1	0.615257030072826	0	0	0	RIGHT	588.0	1
262.4189453125	0.2	COHERENT	1	0.549561924976388	0	0	180	LEFT	592.0	1
263.76904296875	0.2	RANDOM	0	0.499266982330937	0	0	0	NONE	596.0	1
264.99365234375	0.2	RANDOM	0	0.565467065216126	0	0	0	NONE	600.0	1
266.3603515625	0.2	RANDOM	0	0.858015820625042	0	0	0	NONE	604.0	1
268.06884765625	0.2	RANDOM	0	0.523375521465823	0	0	0	NONE	607.0	1
269.41845703125	0.2	COHERENT	1	0.433209367775817	0	0	180	LEFT	611.0	1
270.626953125	0.2	RANDOM	0	0.474033788537781	0	0	0	NONE	615.0	1
271.90185546875	0.2	COHERENT	1	0.564017329219951	0	0	180	LEFT	619.0	1
273.318359375	0.2	COHERENT	1	0.482758766405368	0	0	180	LEFT	623.0	1
274.4267578125	0.2	RANDOM	0	0.606871320008395	0	0	0	NONE	627.0	1
275.884765625	0.2	COHERENT	1	n/a	0	1	0	RIGHT	631.0	0
277.134765625	0.2	COHERENT	1	0.681574528593956	0	0	0	RIGHT	635.0	1
278.66796875	0.2	RANDOM	0	0.61645442809413	0	0	0	NONE	638.0	1
279.884765625	0.2	COHERENT	1	0.631278378589741	0	0	0	RIGHT	642.0	1
281.26806640625	0.2	RANDOM	0	0.540650410185208	0	0	0	NONE	646.0	1
282.40966796875	0.2	COHERENT	1	0.682002537264452	0	0	0	RIGHT	650.0	1
283.81787109375	0.2	COHERENT	1	0.990509858536825	0	0	180	LEFT	654.0	1
285.58447265625	0.2	COHERENT	1	0.499738154075658	0	0	180	LEFT	657.0	1
286.78466796875	0.2	COHERENT	1	0.481423427649133	0	0	0	RIGHT	661.0	1
288.017578125	0.2	COHERENT	1	0.424371803706435	0	0	0	RIGHT	665.0	1
289.3427734375	0.2	COHERENT	1	0.416402330564324	0	0	180	LEFT	669.0	1
290.63427734375	0.2	RANDOM	0	0.4825396307956	0	0	0	NONE	673.0	1
291.84228515625	0.2	RANDOM	0	0.590616951255925	0	0	0	NONE	677.0	1
293.18408203125	0.2	RANDOM	0	0.516035384061979	0	0	0	NONE	681.0	1
294.45068359375	0.2	RANDOM	0	0.441174313321881	0	0	0	NONE	685.0	1
295.642578125	0.2	COHERENT	1	0.53237034400945	0	0	180	LEFT	689.0	1
297.07568359375	0.2	COHERENT	1	0.49878494435734	0	0	0	RIGHT	693.0	1
298.25048828125	0.2	COHERENT	1	0.457066474455132	0	0	0	RIGHT	697.0	1
299.60888671875	0.2	COHERENT	1	0.474369132425181	0	0	180	LEFT	701.0	1
300.708984375	0.2	COHERENT	1	0.447877568995409	0	0	180	LEFT	705.0	1
301.85888671875	0.2	RANDOM	0	0.523590733159381	0	0	0	NONE	709.0	1
303.1337890625	0.2	RANDOM	0	0.632743508409476	0	0	0	NONE	713.0	1
304.591796875	0.2	COHERENT	1	0.458439241332144	0	0	180	LEFT	717.0	1
305.92529296875	0.2	COHERENT	1	0.357179875623842	0	0	180	LEFT	721.0	1
307.1083984375	0.2	COHERENT	1	0.724020130292047	0	0	0	RIGHT	725.0	1
308.4833984375	0.2	RANDOM	0	0.59001659212754	0	0	0	NONE	729.0	1
309.8251953125	0.2	COHERENT	1	0.365099243378609	0	0	180	LEFT	733.0	1
n/a	0.2	COHERENT	1	0.93133207586925	1	0	180	LEFT	n/a	1
312.5	0.2	RANDOM	0	0.53201870077919	0	0	0	NONE	736.0	1
313.85791015625	0.2	RANDOM	0	0.698838852924837	0	0	0	NONE	740.0	1
315.18310546875	0.2	COHERENT	1	0.523221583227496	0	0	0	RIGHT	744.0	1
316.5078125	0.2	COHERENT	1	0.449541611165841	0	0	0	RIGHT	748.0	1
317.68310546875	0.2	COHERENT	1	0.649404153374235	0	0	0	RIGHT	752.0	1
319.10791015625	0.2	COHERENT	1	0.573886279485123	0	0	180	LEFT	756.0	1
320.35791015625	0.2	RANDOM	0	0.524137364825037	0	0	0	NONE	760.0	1
321.48291015625	0.2	RANDOM	0	0.506281736556502	0	0	0	NONE	764.0	1
322.791015625	0.2	COHERENT	1	0.565882698459063	0	0	0	RIGHT	768.0	1
324.0078125	0.2	COHERENT	1	0.514063465415347	0	0	0	RIGHT	772.0	1
325.29931640625	0.2	RANDOM	0	0.432242575272085	0	0	0	NONE	776.0	1
326.40771484375	0.2	COHERENT	1	0.648530931172445	0	0	180	LEFT	780.0	1
327.6572265625	0.2	COHERENT	1	n/a	0	1	180	LEFT	784.0	0
329.04052734375	0.2	COHERENT	1	0.440879415952168	0	0	180	LEFT	788.0	1
330.25732421875	0.2	COHERENT	1	0.424642252061858	0	0	0	RIGHT	792.0	1
331.50732421875	0.2	RANDOM	0	0.508306175308007	0	0	0	NONE	796.0	1
332.6904296875	0.2	COHERENT	1	0.506633379786308	0	0	180	LEFT	800.0	1
334.07373046875	0.2	RANDOM	0	0.499009211241628	0	0	0	NONE	804.0	1
335.44873046875	0.2	COHERENT	1	0.43269956055201	0	0	0	RIGHT	808.0	1
336.60693359375	0.2	COHERENT	1	0.516241540565716	0	0	180	LEFT	812.0	1
337.74853515625	0.2	RANDOM	0	0.522590134611619	0	0	0	NONE	816.0	1
338.99853515625	0.2	RANDOM	0	0.474489566458487	0	0	0	NONE	820.0	1
340.24853515625	0.2	COHERENT	1	0.491010157810706	0	0	0	RIGHT	824.0	1
341.64013671875	0.2	COHERENT	1	0.482675156813457	0	0	0	RIGHT	828.0	1
342.84814453125	0.2	COHERENT	1	0.574111451888257	0	0	180	LEFT	832.0	1
344.0234375	0.2	RANDOM	0	0.456257242265565	0	0	0	NONE	836.0	1
345.28173828125	0.2	RANDOM	0	0.540805857621308	0	0	0	NONE	840.0	1
346.54833984375	0.2	RANDOM	0	0.491871608265228	0	0	0	NONE	844.0	1
347.71484375	0.2	RANDOM	0	0.53992810782438	0	0	0	NONE	848.0	1
349.08154296875	0.2	COHERENT	1	0.432057547546719	0	0	180	LEFT	852.0	1
350.28955078125	0.2	RANDOM	0	0.515595301804751	0	0	0	NONE	856.0	1
351.5810546875	0.2	RANDOM	0	0.5750586248123	0	0	0	NONE	860.0	1
353.00634765625	0.2	RANDOM	0	0.431518160033647	0	0	0	NONE	864.0	1
354.16455078125	0.2	RANDOM	0	0.4828484127911	0	0	0	NONE	868.0	1
355.47265625	0.2	RANDOM	0	0.365760875963133	0	0	0	NONE	872.0	1
356.53955078125	0.2	COHERENT	1	0.506074070854083	0	0	0	RIGHT	876.0	1
357.6474609375	0.2	COHERENT	1	0.523056778760747	0	0	180	LEFT	880.0	1
358.99755859375	0.2	COHERENT	1	0.34844886096289	0	0	0	RIGHT	884.0	1
360.1474609375	0.2	COHERENT	1	0.333114197723717	0	0	0	RIGHT	888.0	1
361.380859375	0.2	RANDOM	0	0.465572014873487	0	0	0	NONE	892.0	1
362.59716796875	0.2	COHERENT	1	n/a	0	1	180	LEFT	896.0	0
363.755859375	0.2	RANDOM	0	0.366384174908035	0	0	0	NONE	900.0	1
364.92236328125	0.2	COHERENT	1	0.424334375585659	0	0	180	LEFT	904.0	1
365.9970703125	0.2	RANDOM	0	0.539406528852851	0	0	0	NONE	908.0	1
367.28857421875	0.2	RANDOM	0	0.424274309489192	0	0	0	NONE	912.0	1
368.48876953125	0.2	RANDOM	0	0.432697447673945	0	0	0	NONE	916.0	1
369.52197265625	0.2	COHERENT	1	0.406048022089635	0	0	180	LEFT	920.0	1
370.5302734375	0.2	COHERENT	1	n/a	0	1	180	LEFT	924.0	0
371.513671875	0.2	RANDOM	0	0.573119908530316	0	0	0	NONE	929.0	1
372.9384765625	0.2	RANDOM	0	0.640742561840398	0	0	0	NONE	933.0	1
374.330078125	0.2	RANDOM	0	0.507963285428104	0	0	0	NONE	937.0	1
375.5634765625	0.2	RANDOM	0	0.524000631448871	0	0	0	NONE	941.0	1
376.73828125	0.2	RANDOM	0	0.415469344105077	0	0	0	NONE	945.0	1
378.05517578125	0.2	COHERENT	1	0.448859755322701	0	0	0	RIGHT	949.0	1
379.330078125	0.2	RANDOM	0	0.491757211025288	0	0	0	NONE	953.0	1
380.646484375	0.2	RANDOM	0	0.416356450932653	0	0	0	NONE	957.0	1
381.837890625	0.2	COHERENT	1	n/a	0	1	0	RIGHT	961.0	0
382.97119140625	0.2	COHERENT	1	0.449400350194082	0	0	180	LEFT	965.0	1
384.146484375	0.2	COHERENT	1	0.390443514174876	0	0	180	LEFT	969.0	1
385.43798828125	0.2	RANDOM	0	n/a	0	1	0	NONE	973.0	0
386.39599609375	0.2	RANDOM	0	0.581386693759669	0	0	0	NONE	978.0	1
387.70458984375	0.2	RANDOM	0	0.390968111542861	0	0	0	NONE	982.0	1
388.7958984375	0.2	COHERENT	1	0.514355948067987	0	0	180	LEFT	986.0	1
390.087890625	0.2	RANDOM	0	0.49894733410656	0	0	0	NONE	990.0	1
391.1875	0.2	COHERENT	1	0.44045050176328	0	0	180	LEFT	994.0	1
392.4541015625	0.2	COHERENT	1	0.649757607643096	0	0	0	RIGHT	998.0	1
393.85400390625	0.2	RANDOM	0	0.50749181184392	0	0	0	NONE	1002.0	1
395.2373046875	0.2	RANDOM	0	0.490967900255328	0	0	0	NONE	1006.0	1
396.4541015625	0.2	COHERENT	1	0.399438638558422	0	0	180	LEFT	1010.0	1
397.5791015625	0.2	COHERENT	1	0.624232534876683	0	0	0	RIGHT	1014.0	1
399.10400390625	0.2	COHERENT	1	0.456991014534651	0	0	0	RIGHT	1017.0	1
400.46240234375	0.2	COHERENT	1	0.415761524918253	0	0	0	RIGHT	1021.0	1
401.62890625	0.2	COHERENT	1	0.590421962821438	0	0	180	LEFT	1025.0	1
402.99560546875	0.2	RANDOM	0	0.51562095817826	0	0	0	NONE	1029.0	1
404.26220703125	0.2	RANDOM	0	0.657739456211857	0	0	0	NONE	1033.0	1
405.6953125	0.2	RANDOM	0	0.608292683074069	0	0	0	NONE	1037.0	1
406.9287109375	0.2	COHERENT	1	0.539481686933868	0	0	0	RIGHT	1041.0	1
408.3203125	0.2	COHERENT	1	0.449326701311747	0	0	180	LEFT	1045.0	1
409.3701171875	0.2	COHERENT	1	0.506572106331078	0	0	180	LEFT	1049.0	1
410.728515625	0.2	RANDOM	0	0.533258658195791	0	0	0	NONE	1053.0	1
412.13671875	0.2	RANDOM	0	0.515256939520441	0	0	0	NONE	1057.0	1
413.453125	0.2	RANDOM	0	0.507966605664933	0	0	0	NONE	1061.0	1
414.611328125	0.2	COHERENT	1	0.489500053878601	0	0	180	LEFT	1065.0	1
415.7529296875	0.2	RANDOM	0	0.564576034472339	0	0	0	NONE	1069.0	1
417.11962890625	0.2	COHERENT	1	0.532716855965191	0	0	0	RIGHT	1073.0	1
418.40283203125	0.2	RANDOM	0	0.574964148991512	0	0	0	NONE	1077.0	1
419.60302734375	0.2	RANDOM	0	0.472901587888373	0	0	0	NONE	1081.0	1
420.8779296875	0.2	COHERENT	1	0.540459647505941	0	0	0	RIGHT	1085.0	1
422.14453125	0.2	COHERENT	1	0.573867565424734	0	0	180	LEFT	1089.0	1
423.39453125	0.2	RANDOM	0	0.581640239093304	0	0	0	NONE	1093.0	1
424.77783203125	0.2	COHERENT	1	0.516126841486312	0	0	0	RIGHT	1097.0	1
426.0693359375	0.2	RANDOM	0	0.506885415921261	0	0	0	NONE	1101.0	1
427.2275390625	0.2	RANDOM	0	0.515339341754043	0	0	0	NONE	1105.0	1
428.494140625	0.2	RANDOM	0	0.658134866195724	0	0	0	NONE	1109.0	1
430.00244140625	0.2	RANDOM	0	0.615087698010484	0	0	0	NONE	1112.0	1
431.244140625	0.2	COHERENT	1	0.547886714737615	0	0	0	RIGHT	1116.0	1
432.44384765625	0.2	COHERENT	1	0.473309675139262	0	0	0	RIGHT	1120.0	1
433.64404296875	0.2	COHERENT	1	0.515906196677861	0	0	0	RIGHT	1124.0	1
434.78564453125	0.2	COHERENT	1	0.381538941695908	0	0	0	RIGHT	1128.0	1
435.94384765625	0.2	RANDOM	0	0.50823614850151	0	0	0	NONE	1132.0	1
437.126953125	0.2	RANDOM	0	0.40606552879126	0	0	0	NONE	1136.0	1
438.21044921875	0.2	RANDOM	0	0.43959780465957	0	0	0	NONE	1140.0	1
439.5517578125	0.2	RANDOM	0	0.433312295107498	0	0	0	NONE	1144.0	1
440.68505859375	0.2	RANDOM	0	0.481286996112885	0	0	0	NONE	1148.0	1
441.8935546875	0.2	RANDOM	0	0.498894814002142	0	0	0	NONE	1152.0	1
443.2685546875	0.2	RANDOM	0	0.473767565937578	0	0	0	NONE	1156.0	1
444.34326171875	0.2	RANDOM	0	0.490205453216731	0	0	0	NONE	1160.0	1
457.22607421875	0.2	RANDOM	0	0.499597496782826	0	0	0	NONE	1162.0	1
458.55078125	0.2	COHERENT	1	0.441657256814779	0	0	0	RIGHT	1166.0	1
459.5927734375	0.2	COHERENT	1	0.464700000030462	0	0	0	RIGHT	1170.0	1
460.708984375	0.2	COHERENT	1	0.498649116500474	0	0	180	LEFT	1174.0	1
462.05908203125	0.2	RANDOM	0	0.457937281939394	0	0	0	NONE	1178.0	1
463.21728515625	0.2	RANDOM	0	0.831977318558984	0	0	0	NONE	1182.0	1
464.92578125	0.2	COHERENT	1	0.582499274829843	0	0	180	LEFT	1185.0	1
466.2587890625	0.2	COHERENT	1	0.482451191768632	0	0	180	LEFT	1189.0	1
467.39208984375	0.2	RANDOM	0	0.548538386612563	0	0	0	NONE	1193.0	1
468.56689453125	0.2	RANDOM	0	0.481943195582971	0	0	0	NONE	1197.0	1
469.775390625	0.2	RANDOM	0	0.423886747336383	0	0	0	NONE	1201.0	1
470.900390625	0.2	RANDOM	0	0.481532693614099	0	0	0	NONE	1205.0	1
472.1083984375	0.2	RANDOM	0	0.407782996585865	0	0	0	NONE	1209.0	1
473.14208984375	0.2	RANDOM	0	0.432075959767189	0	0	0	NONE	1213.0	1
474.2001953125	0.2	COHERENT	1	0.531170833110536	0	0	0	RIGHT	1217.0	1
475.4833984375	0.2	COHERENT	1	0.407907052695464	0	0	0	RIGHT	1221.0	1
476.49169921875	0.2	COHERENT	1	0.497733334902932	0	0	180	LEFT	1225.0	1
477.61669921875	0.2	COHERENT	1	0.398724184029106	0	0	180	LEFT	1229.0	1
478.7666015625	0.2	COHERENT	1	0.366267061111103	0	0	180	LEFT	1233.0	1
479.9833984375	0.2	COHERENT	1	n/a	0	1	0	RIGHT	1237.0	0
481.25	0.2	RANDOM	0	n/a	0	1	0	NONE	1241.0	0
482.599609375	0.2	RANDOM	0	0.457678605331694	0	0	0	NONE	1245.0	1
483.658203125	0.2	COHERENT	1	0.673177348622175	0	0	180	LEFT	1249.0	1
485.033203125	0.2	RANDOM	0	0.498098259079597	0	0	0	NONE	1253.0	1
486.30810546875	0.2	COHERENT	1	0.549041251524159	0	0	0	RIGHT	1257.0	1
487.6328125	0.2	RANDOM	0	0.465942372164136	0	0	0	NONE	1261.0	1
488.8994140625	0.2	COHERENT	1	0.406696675568128	0	0	0	RIGHT	1265.0	1
490.03271484375	0.2	RANDOM	0	0.457884459995057	0	0	0	NONE	1269.0	1
491.26611328125	0.2	RANDOM	0	0.515472151214453	0	0	0	NONE	1273.0	1
492.65771484375	0.2	COHERENT	1	0.366509136536479	0	0	180	LEFT	1277.0	1
493.67431640625	0.2	RANDOM	0	0.515029352399779	0	0	0	NONE	1281.0	1
494.81591796875	0.2	RANDOM	0	0.880533664632821	0	0	0	NONE	1285.0	1
496.52392578125	0.2	RANDOM	0	0.52497617730296	0	0	0	NONE	1288.0	1
497.8740234375	0.2	COHERENT	1	0.565527433152511	0	0	180	LEFT	1292.0	1
499.11572265625	0.2	COHERENT	1	0.806283819249984	0	0	180	LEFT	1296.0	1
500.82373046875	0.2	COHERENT	1	0.674602937443524	0	0	180	LEFT	1299.0	1
502.3486328125	0.2	COHERENT	1	0.474354945960386	0	0	0	RIGHT	1302.0	1
503.62353515625	0.2	RANDOM	0	0.54100476997246	0	0	0	NONE	1306.0	1
504.84033203125	0.2	RANDOM	0	0.697311242290652	0	0	0	NONE	1310.0	1
506.39013671875	0.2	COHERENT	1	0.399732630408835	0	0	0	RIGHT	1313.0	1
507.4404296875	0.2	RANDOM	0	0.548518465193865	0	0	0	NONE	1317.0	1
508.89013671875	0.2	RANDOM	0	0.457688867880734	0	0	0	NONE	1321.0	1
510.1982421875	0.2	COHERENT	1	0.390839527838125	0	0	0	RIGHT	1325.0	1
511.365234375	0.2	RANDOM	0	n/a	0	1	0	NONE	1329.0	0
512.556640625	0.2	COHERENT	1	n/a	0	1	0	RIGHT	1333.0	0
513.58154296875	0.2	RANDOM	0	0.548642521303009	0	0	0	NONE	1337.0	1
514.931640625	0.2	RANDOM	0	0.548780160198021	0	0	0	NONE	1341.0	1
516.33154296875	0.2	RANDOM	0	0.407204068074407	0	0	0	NONE	1345.0	1
517.6396484375	0.2	COHERENT	1	0.391259990516119	0	0	0	RIGHT	1349.0	1
518.75634765625	0.2	RANDOM	0	0.581903443296142	0	0	0	NONE	1353.0	1
520.23974609375	0.2	COHERENT	1	0.458172716892477	0	0	0	RIGHT	1357.0	1
n/a	0.2	RANDOM	0	n/a	1	1	0	NONE	n/a	0
523.59765625	0.2	RANDOM	0	0.590450335751484	0	0	0	NONE	1359.0	1
524.96435546875	0.2	COHERENT	1	n/a	0	1	0	RIGHT	1363.0	0
526.08935546875	0.2	COHERENT	1	0.541069967343901	0	0	180	LEFT	1367.0	1
527.380859375	0.2	RANDOM	0	0.465711162967182	0	0	0	NONE	1371.0	1
528.447265625	0.2	COHERENT	1	n/a	0	1	0	RIGHT	1375.0	0
529.84765625	0.2	COHERENT	1	0.566184839981361	0	0	180	LEFT	1379.0	1
531.06396484375	0.2	RANDOM	0	0.497622861578748	0	0	0	NONE	1383.0	1
532.4638671875	0.2	COHERENT	1	0.541679683502934	0	0	0	RIGHT	1387.0	1
533.63037109375	0.2	RANDOM	0	0.556899043983321	0	0	0	NONE	1391.0	1
534.93896484375	0.2	COHERENT	1	0.59923779443352	0	0	0	RIGHT	1395.0	1
536.36376953125	0.2	RANDOM	0	0.457867858812733	0	0	0	NONE	1399.0	1
537.421875	0.2	RANDOM	0	0.631077957040361	0	0	0	NONE	1403.0	1
538.955078125	0.2	COHERENT	1	0.324013731290961	0	0	0	RIGHT	1406.0	1
539.98046875	0.2	COHERENT	1	0.43954769927268	0	0	0	RIGHT	1410.0	1
541.296875	0.2	COHERENT	1	0.498953069060917	0	0	180	LEFT	1414.0	1
542.39697265625	0.2	RANDOM	0	0.506143192141735	0	0	0	NONE	1418.0	1
543.80517578125	0.2	RANDOM	0	0.424503405808082	0	0	0	NONE	1422.0	1
545.080078125	0.2	RANDOM	0	0.448889033772048	0	0	0	NONE	1426.0	1
546.22998046875	0.2	RANDOM	0	0.523763385458096	0	0	0	NONE	1430.0	1
547.52978515625	0.2	COHERENT	1	0.425060601862242	0	0	0	RIGHT	1434.0	1
548.82958984375	0.2	COHERENT	1	0.399033871543907	0	0	0	RIGHT	1438.0	1
549.9296875	0.2	RANDOM	0	0.547827554159539	0	0	0	NONE	1442.0	1
551.3798828125	0.2	COHERENT	1	0.366326221688269	0	0	0	RIGHT	1446.0	1
552.47119140625	0.2	RANDOM	0	0.890802250637535	0	0	0	NONE	1450.0	1
554.06298828125	0.2	COHERENT	1	0.515012449377537	0	0	0	RIGHT	1453.0	1
555.3544921875	0.2	COHERENT	1	0.407033528653756	0	0	180	LEFT	1457.0	1
556.36279296875	0.2	COHERENT	1	0.406361633520191	0	0	0	RIGHT	1461.0	1
557.49609375	0.2	COHERENT	1	0.308069955572591	0	0	180	LEFT	1465.0	1
558.529296875	0.2	COHERENT	1	0.340582616992378	0	0	180	LEFT	1469.0	1
559.47119140625	0.2	COHERENT	1	0.356903088634681	0	0	180	LEFT	1474.0	1
560.62939453125	0.2	RANDOM	0	0.391369860160466	0	0	0	NONE	1478.0	1
561.7958984375	0.2	RANDOM	0	0.340904679933828	0	0	0	NONE	1482.0	1
562.78759765625	0.2	RANDOM	0	0.38949815228807	0	0	0	NONE	1487.0	1
563.9541015625	0.2	RANDOM	0	0.307844783169003	0	0	0	NONE	1491.0	1
564.912109375	0.2	RANDOM	0	0.390373487368379	0	0	0	NONE	1496.0	1
566.12890625	0.2	COHERENT	1	n/a	0	1	180	LEFT	1500.0	0
567.25390625	0.2	COHERENT	1	0.382419709889746	0	0	180	LEFT	1502.0	1
568.537109375	0.2	RANDOM	0	0.499356025037287	0	0	0	NONE	1506.0	1
569.7373046875	0.2	COHERENT	1	0.431429117326843	0	0	180	LEFT	1510.0	1
570.9453125	0.2	RANDOM	0	0.473863852796057	0	0	0	NONE	1514.0	1
572.1455078125	0.2	COHERENT	1	0.366515475169763	0	0	180	LEFT	1518.0	1
573.3369140625	0.2	COHERENT	1	0.399368913591388	0	0	0	RIGHT	1522.0	1
574.56201171875	0.2	RANDOM	0	0.457951166565181	0	0	0	NONE	1526.0	1
575.7451171875	0.2	COHERENT	1	0.43203490957012	0	0	180	LEFT	1530.0	1
576.978515625	0.2	COHERENT	1	0.415300615722572	0	0	180	LEFT	1534.0	1
578.14501953125	0.2	COHERENT	1	0.524134648267591	0	0	180	LEFT	1538.0	1
579.544921875	0.2	RANDOM	0	0.466181127353138	0	0	0	NONE	1542.0	1
580.8115234375	0.2	COHERENT	1	0.640680081025948	0	0	180	LEFT	1546.0	1
582.203125	0.2	COHERENT	1	0.657315975136498	0	0	180	LEFT	1550.0	1
583.76123046875	0.2	COHERENT	1	0.649735573345879	0	0	0	RIGHT	1553.0	1
585.2861328125	0.2	COHERENT	1	0.615813924287067	0	0	180	LEFT	1556.0	1
586.52783203125	0.2	COHERENT	1	0.806923115698282	0	0	0	RIGHT	1560.0	1
588.111328125	0.2	COHERENT	1	0.449136542311862	0	0	0	RIGHT	1563.0	1
589.43603515625	0.2	COHERENT	1	0.540745187845459	0	0	0	RIGHT	1567.0	1
n/a	0.2	COHERENT	1	0.540365473524616	1	0	180	LEFT	n/a	1
591.84423828125	0.2	COHERENT	1	0.347695770954488	0	0	180	LEFT	1571.0	1
592.79443359375	0.2	RANDOM	0	0.415822194694556	0	0	0	NONE	1576.0	1
593.98583984375	0.2	RANDOM	0	0.490797360834677	0	0	0	NONE	1580.0	1
595.15234375	0.2	COHERENT	1	n/a	0	1	0	RIGHT	1584.0	0
596.51904296875	0.2	RANDOM	0	0.841468667380468	0	0	0	NONE	1588.0	1
597.98583984375	0.2	COHERENT	1	0.7060534250204	0	0	180	LEFT	1592.0	1
599.369140625	0.2	RANDOM	0	0.764593722277823	0	0	0	NONE	1596.0	1
601.03564453125	0.2	RANDOM	0	1.10757505922857	0	0	0	NONE	1599.0	1
602.84375	0.2	RANDOM	0	0.882232418366584	0	0	0	NONE	1601.0	1
604.3271484375	0.2	COHERENT	1	0.656063340453784	0	0	180	LEFT	1605.0	1
605.63525390625	0.2	RANDOM	0	0.590080582140217	0	0	0	NONE	1609.0	1
607.02685546875	0.2	COHERENT	1	0.44828837280329	0	0	180	LEFT	1613.0	1
608.27685546875	0.2	RANDOM	0	0.449276595924402	0	0	0	NONE	1617.0	1
609.5517578125	0.2	RANDOM	0	0.591255040345004	0	0	0	NONE	1621.0	1
610.9931640625	0.2	COHERENT	1	n/a	0	1	180	LEFT	1625.0	0
612.3349609375	0.2	COHERENT	1	n/a	0	1	0	RIGHT	1629.0	0
613.56005859375	0.2	RANDOM	0	0.474610302331257	0	0	0	NONE	1633.0	1
614.81005859375	0.2	COHERENT	1	0.515704869609635	0	0	180	LEFT	1637.0	1
616.1015625	0.2	RANDOM	0	0.491314714050532	0	0	0	NONE	1641.0	1
617.3681640625	0.2	COHERENT	1	0.541190401377207	0	0	180	LEFT	1645.0	1
618.78466796875	0.2	RANDOM	0	0.40737822957135	0	0	0	NONE	1649.0	1
619.81787109375	0.2	RANDOM	0	0.522861790325805	0	0	0	NONE	1653.0	1
621.16796875	0.2	RANDOM	0	0.524727159564918	0	0	0	NONE	1657.0	1
622.44287109375	0.2	RANDOM	0	n/a	0	1	0	NONE	1661.0	0
623.6259765625	0.2	COHERENT	1	0.598238101404149	0	0	0	RIGHT	1665.0	1
624.97607421875	0.2	COHERENT	1	n/a	0	1	180	LEFT	1669.0	0
626.076171875	0.2	RANDOM	0	0.548536877414335	0	0	0	NONE	1673.0	1
627.47607421875	0.2	COHERENT	1	n/a	0	1	0	RIGHT	1677.0	0
628.59228515625	0.2	RANDOM	0	0.531579222201344	0	0	0	NONE	1681.0	1
629.8505859375	0.2	RANDOM	0	0.641265046331227	0	0	0	NONE	1685.0	1
631.1171875	0.2	COHERENT	1	0.431093471599979	0	0	0	RIGHT	1689.0	1
632.42578125	0.2	RANDOM	0	0.632575987385735	0	0	0	NONE	1693.0	1
633.958984375	0.2	RANDOM	0	0.465968934056036	0	0	0	NONE	1696.0	1
635.20068359375	0.2	COHERENT	1	0.548558308031716	0	0	0	RIGHT	1700.0	1
636.57568359375	0.2	RANDOM	0	0.491461408136274	0	0	0	NONE	1704.0	1
637.7421875	0.2	COHERENT	1	0.498402815318968	0	0	0	RIGHT	1708.0	1
639.14208984375	0.2	COHERENT	1	0.590353747053086	0	0	0	RIGHT	1712.0	1
640.55859375	0.2	RANDOM	0	0.499829309659617	0	0	0	NONE	1716.0	1
641.80859375	0.2	RANDOM	0	0.608053022366221	0	0	0	NONE	1720.0	1
643.31689453125	0.2	RANDOM	0	0.540053974972125	0	0	0	NONE	1723.0	1
644.658203125	0.2	RANDOM	0	0.565903525396607	0	0	0	NONE	1727.0	1
645.9248046875	0.2	RANDOM	0	0.43892711688477	0	0	0	NONE	1731.0	1
647.19140625	0.2	COHERENT	1	0.482409537892636	0	0	0	RIGHT	1735.0	1
671.91552734375	0.2	COHERENT	1	0.532735268186116	0	0	0	RIGHT	1737.0	1
673.1484375	0.2	RANDOM	0	1.0236322361161	0	0	0	NONE	1741.0	1
674.99853515625	0.2	RANDOM	0	0.916068043115956	0	0	0	NONE	1743.0	1
676.5400390625	0.2	COHERENT	1	0.681783703494148	0	0	0	RIGHT	1746.0	1
678.0234375	0.2	COHERENT	1	0.73981087329139	0	0	180	LEFT	1750.0	1
679.5400390625	0.2	RANDOM	0	0.450155854920467	0	0	0	NONE	1753.0	1
680.83984375	0.2	COHERENT	1	0.56564001935385	0	0	0	RIGHT	1757.0	1
682.00634765625	0.2	COHERENT	1	0.764866887191147	0	0	180	LEFT	1761.0	1
683.498046875	0.2	RANDOM	0	0.691681026689366	0	0	0	NONE	1765.0	1
684.91455078125	0.2	COHERENT	1	0.53244188001463	0	0	180	LEFT	1769.0	1
686.14794921875	0.2	COHERENT	1	0.731621057181655	0	0	180	LEFT	1773.0	1
687.63134765625	0.2	RANDOM	0	0.583146419110108	0	0	0	NONE	1777.0	1
688.814453125	0.2	RANDOM	0	n/a	0	1	0	NONE	1781.0	0
690.189453125	0.2	COHERENT	1	0.481884336844359	0	0	0	RIGHT	1785.0	1
691.2978515625	0.2	COHERENT	1	0.497798834113837	0	0	180	LEFT	1789.0	1
692.69775390625	0.2	RANDOM	0	0.508493014071519	0	0	0	NONE	1793.0	1
693.8310546875	0.2	COHERENT	1	n/a	0	1	180	LEFT	1797.0	0
694.94775390625	0.2	COHERENT	1	0.506571200811777	0	0	180	LEFT	1801.0	1
696.3056640625	0.2	RANDOM	0	0.457941809534987	0	0	0	NONE	1805.0	1
697.4892578125	0.2	COHERENT	1	0.432601462654475	0	0	180	LEFT	1809.0	1
698.72216796875	0.2	RANDOM	0	0.457917964200078	0	0	0	NONE	1813.0	1
699.83056640625	0.2	COHERENT	1	0.523278329088043	0	0	0	RIGHT	1817.0	1
701.00537109375	0.2	RANDOM	0	0.798069252285586	0	0	0	NONE	1821.0	1
702.60546875	0.2	COHERENT	1	0.441092212928652	0	0	180	LEFT	1824.0	1
703.697265625	0.2	RANDOM	0	0.547927764934684	0	0	0	NONE	1828.0	1
705.1220703125	0.2	COHERENT	1	0.356724701382518	0	0	180	LEFT	1832.0	1
706.13037109375	0.2	COHERENT	1	0.515750749241306	0	0	180	LEFT	1836.0	1
707.39697265625	0.2	COHERENT	1	0.441282070089073	0	0	180	LEFT	1840.0	1
708.66357421875	0.2	RANDOM	0	0.499086784040173	0	0	0	NONE	1844.0	1
709.86328125	0.2	COHERENT	1	0.564222580203932	0	0	180	LEFT	1848.0	1
711.2802734375	0.2	RANDOM	0	0.432439676584636	0	0	0	NONE	1852.0	1
712.4384765625	0.2	COHERENT	1	n/a	0	1	0	RIGHT	1856.0	0
713.7880859375	0.2	COHERENT	1	0.449461623650222	0	0	180	LEFT	1860.0	1
714.98828125	0.2	COHERENT	1	0.807320336720295	0	0	0	RIGHT	1864.0	1
716.4716796875	0.2	RANDOM	0	0.57365476844825	0	0	0	NONE	1868.0	1
717.87158203125	0.2	COHERENT	1	0.516261763824332	0	0	180	LEFT	1872.0	1
719.212890625	0.2	COHERENT	1	0.515336323357133	0	0	0	RIGHT	1876.0	1
720.45458984375	0.2	RANDOM	0	0.532790806687444	0	0	0	NONE	1880.0	1
721.86279296875	0.2	COHERENT	1	n/a	0	1	0	RIGHT	1884.0	0
723.2958984375	0.2	COHERENT	1	0.556787061460909	0	0	0	RIGHT	1888.0	1
724.75439453125	0.2	COHERENT	1	0.515848545298468	0	0	0	RIGHT	1892.0	1
725.9208984375	0.2	COHERENT	1	0.606622905949735	0	0	180	LEFT	1896.0	1
727.12939453125	0.2	RANDOM	0	0.448387678059134	0	0	0	NONE	1900.0	1
728.42919921875	0.2	COHERENT	1	0.533037409708868	0	0	0	RIGHT	1904.0	1
729.66259765625	0.2	COHERENT	1	0.539562881808706	0	0	180	LEFT	1908.0	1
n/a	0.2	COHERENT	1	0.515761917310101	1	0	0	RIGHT	n/a	1
732.2958984375	0.2	RANDOM	0	0.606953722241542	0	0	0	NONE	1912.0	1
733.5791015625	0.2	COHERENT	1	0.964341867246731	0	0	0	RIGHT	1916.0	1
735.42041015625	0.2	RANDOM	0	0.549264311049228	0	0	0	NONE	1919.0	1
736.8203125	0.2	RANDOM	0	0.549572489365346	0	0	0	NONE	1923.0	1
738.17041015625	0.2	COHERENT	1	0.540638940276949	0	0	0	RIGHT	1927.0	1
739.51220703125	0.2	RANDOM	0	0.449985315499362	0	0	0	NONE	1931.0	1
740.63671875	0.2	RANDOM	0	0.564458015156561	0	0	0	NONE	1935.0	1
741.9033203125	0.2	COHERENT	1	0.456335116904029	0	0	180	LEFT	1939.0	1
743.13671875	0.2	COHERENT	1	0.532528206163533	0	0	0	RIGHT	1943.0	1
744.3203125	0.2	RANDOM	0	0.456684345416761	0	0	0	NONE	1947.0	1
745.37841796875	0.2	RANDOM	0	0.456887785363051	0	0	0	NONE	1951.0	1
746.73681640625	0.2	COHERENT	1	0.307469294603834	0	0	0	RIGHT	1955.0	1
747.81982421875	0.2	COHERENT	1	0.41603921742626	0	0	180	LEFT	1959.0	1
748.91162109375	0.2	RANDOM	0	0.405879293707585	0	0	0	NONE	1963.0	1
749.99462890625	0.2	RANDOM	0	0.473880152139373	0	0	0	NONE	1967.0	1
751.26953125	0.2	RANDOM	0	n/a	0	1	0	NONE	1971.0	0
752.453125	0.2	RANDOM	0	0.482644067325964	0	0	0	NONE	1975.0	1
753.611328125	0.2	RANDOM	0	0.456652350410423	0	0	0	NONE	1979.0	1
754.91943359375	0.2	RANDOM	0	0.658137280913252	0	0	0	NONE	1983.0	1
756.45263671875	0.2	RANDOM	0	0.415486548967692	0	0	0	NONE	1986.0	1
757.71923828125	0.2	RANDOM	0	0.499448086140546	0	0	0	NONE	1990.0	1
758.91943359375	0.2	RANDOM	0	0.497922286544053	0	0	0	NONE	1994.0	1
760.244140625	0.2	RANDOM	0	0.458033568798783	0	0	0	NONE	1998.0	1
761.6025390625	0.2	RANDOM	0	0.50768921499639	0	0	0	NONE	2002.0	1
762.91064453125	0.2	RANDOM	0	0.474435235315468	0	0	0	NONE	2006.0	1
764.28564453125	0.2	COHERENT	1	0.424042496612401	0	0	0	RIGHT	2010.0	1
765.48583984375	0.2	RANDOM	0	0.599298464209369	0	0	0	NONE	2014.0	1
766.96044921875	0.2	RANDOM	0	0.507470984905922	0	0	0	NONE	2018.0	1
768.11865234375	0.2	RANDOM	0	0.781129103774219	0	0	0	NONE	2022.0	1
769.65234375	0.2	RANDOM	0	n/a	0	1	0	NONE	2025.0	0
771.5771484375	0.2	RANDOM	0	0.982166707867691	0	0	0	NONE	2026.0	1
773.38525390625	0.2	RANDOM	0	0.682278116894395	0	0	0	NONE	2029.0	1
774.86865234375	0.2	COHERENT	1	0.541336491784023	0	0	0	RIGHT	2033.0	1
776.1103515625	0.2	RANDOM	0	0.647750675592761	0	0	0	NONE	2037.0	1
777.53515625	0.2	RANDOM	0	0.64165411768181	0	0	0	NONE	2041.0	1
778.95166015625	0.2	COHERENT	1	0.582461846709521	0	0	0	RIGHT	2045.0	1
780.31005859375	0.2	RANDOM	0	0.516013953444599	0	0	0	NONE	2049.0	1
781.50146484375	0.2	COHERENT	1	0.56494488256476	0	0	180	LEFT	2053.0	1
782.84326171875	0.2	COHERENT	1	n/a	0	1	0	RIGHT	2057.0	0
783.85986328125	0.2	COHERENT	1	0.473365213640591	0	0	0	RIGHT	2061.0	1
785.10986328125	0.2	RANDOM	0	0.49878886827355	0	0	0	NONE	2065.0	1
786.3095703125	0.2	COHERENT	1	0.60692746218956	0	0	180	LEFT	2069.0	1
787.76806640625	0.2	COHERENT	1	0.491073845983919	0	0	0	RIGHT	2073.0	1
789.109375	0.2	COHERENT	1	0.506670506067167	0	0	0	RIGHT	2077.0	1
790.29296875	0.2	RANDOM	0	0.548594830633192	0	0	0	NONE	2081.0	1
791.54296875	0.2	RANDOM	0	0.856801821421413	0	0	0	NONE	2085.0	1
793.2509765625	0.2	RANDOM	0	0.741373195488904	0	0	0	NONE	2088.0	1
794.6923828125	0.2	RANDOM	0	0.648543910278477	0	0	0	NONE	2092.0	1
796.09228515625	0.2	RANDOM	0	0.448950910907115	0	0	0	NONE	2096.0	1
797.41748046875	0.2	RANDOM	0	0.366038568470685	0	0	0	NONE	2100.0	1
798.63427734375	0.2	RANDOM	0	0.432196091960577	0	0	0	NONE	2104.0	1
799.96728515625	0.2	RANDOM	0	0.490732465302699	0	0	0	NONE	2108.0	1
801.23388671875	0.2	COHERENT	1	0.449191477133809	0	0	180	LEFT	2112.0	1
802.3837890625	0.2	COHERENT	1	0.473039528623303	0	0	180	LEFT	2116.0	1
803.458984375	0.2	RANDOM	0	n/a	0	1	0	NONE	2120.0	0
804.7001953125	0.2	COHERENT	1	0.449911666617027	0	0	0	RIGHT	2124.0	1
805.75048828125	0.2	RANDOM	0	0.505597767834843	0	0	0	NONE	2128.0	1
806.95849609375	0.2	RANDOM	0	0.448521091198472	0	0	0	NONE	2132.0	1
808.1337890625	0.2	COHERENT	1	n/a	0	1	180	LEFT	2136.0	0
809.31689453125	0.2	RANDOM	0	0.549626216828983	0	0	0	NONE	2140.0	1
810.591796875	0.2	COHERENT	1	0.416667345805763	0	0	0	RIGHT	2144.0	1
811.70849609375	0.2	COHERENT	1	0.606854416986153	0	0	180	LEFT	2148.0	1
813.11669921875	0.2	RANDOM	0	0.457649025042883	0	0	0	NONE	2152.0	1
814.19970703125	0.2	RANDOM	0	0.515078552268278	0	0	0	NONE	2156.0	1
815.31640625	0.2	COHERENT	1	0.572985589871678	0	0	0	RIGHT	2160.0	1
816.7666015625	0.2	COHERENT	1	0.324464377937147	0	0	0	RIGHT	2164.0	1
817.71630859375	0.2	COHERENT	1	0.464985842209444	0	0	0	RIGHT	2169.0	1
818.85791015625	0.2	COHERENT	1	0.372397425066083	0	0	0	RIGHT	2173.0	1
820.1328125	0.2	COHERENT	1	0.399642078504257	0	0	0	RIGHT	2177.0	1
821.40771484375	0.2	COHERENT	1	0.382805762843873	0	0	0	RIGHT	2181.0	1
822.39111328125	0.2	RANDOM	0	0.640399671960949	0	0	0	NONE	2186.0	1
823.8330078125	0.2	COHERENT	1	n/a	0	1	180	LEFT	2190.0	0
825.19091796875	0.2	RANDOM	0	0.507314631950067	0	0	0	NONE	2194.0	1
826.37451171875	0.2	COHERENT	1	0.448117833382639	0	0	0	RIGHT	2198.0	1
827.57421875	0.2	COHERENT	1	n/a	0	1	180	LEFT	2202.0	0
828.94921875	0.2	COHERENT	1	0.374252531755701	0	0	0	RIGHT	2206.0	1
830.09912109375	0.2	RANDOM	0	0.449323984754756	0	0	0	NONE	2210.0	1
831.27392578125	0.2	RANDOM	0	n/a	0	1	0	NONE	2214.0	0
832.84912109375	0.2	RANDOM	0	0.633384012216084	0	0	0	NONE	2217.0	1
834.33203125	0.2	COHERENT	1	0.473590687883643	0	0	180	LEFT	2221.0	1
835.50732421875	0.2	RANDOM	0	0.4574636954776	0	0	0	NONE	2225.0	1
836.765625	0.2	COHERENT	1	n/a	0	1	180	LEFT	2229.0	0
837.83203125	0.2	COHERENT	1	0.51446159195666	0	0	180	LEFT	2233.0	1
838.9736328125	0.2	COHERENT	1	0.472981273564073	0	0	0	RIGHT	2237.0	1
840.1484375	0.2	RANDOM	0	0.61442093415144	0	0	0	NONE	2241.0	1
841.59033203125	0.2	COHERENT	1	0.599814610066915	0	0	0	RIGHT	2245.0	1
843.09033203125	0.2	RANDOM	0	0.515806891422471	0	0	0	NONE	2249.0	1
844.3818359375	0.2	RANDOM	0	0.858008576472912	0	0	0	NONE	2253.0	1
845.83984375	0.2	COHERENT	1	0.6816738338498	0	0	180	LEFT	2257.0	1
847.248046875	0.2	RANDOM	0	0.574033879089711	0	0	0	NONE	2261.0	1
848.67333984375	0.2	COHERENT	1	0.966068692071076	0	0	180	LEFT	2265.0	1
850.36474609375	0.2	RANDOM	0	0.465102654166913	0	0	0	NONE	2268.0	1
851.53125	0.2	COHERENT	1	0.63949777498874	0	0	0	RIGHT	2272.0	1
853.07275390625	0.2	COHERENT	1	n/a	0	1	180	LEFT	2275.0	0
854.3310546875	0.2	RANDOM	0	0.656952258319052	0	0	0	NONE	2279.0	1
855.61474609375	0.2	RANDOM	0	0.731666031294026	0	0	0	NONE	2283.0	1
857.19775390625	0.2	RANDOM	0	0.715513684354846	0	0	0	NONE	2286.0	1
858.58935546875	0.2	COHERENT	1	0.723907845930171	0	0	180	LEFT	2290.0	1
859.9892578125	0.2	COHERENT	1	0.497366599688576	0	0	180	LEFT	2294.0	1
861.1640625	0.2	COHERENT	1	0.423318081373964	0	0	180	LEFT	2298.0	1
862.31396484375	0.2	COHERENT	1	0.415843625311936	0	0	180	LEFT	2302.0	1
863.380859375	0.2	COHERENT	1	0.531998779360038	0	0	180	LEFT	2306.0	1
864.63916015625	0.2	RANDOM	0	0.449494222335943	0	0	0	NONE	2310.0	1
865.86376953125	0.2	RANDOM	0	0.365523931811822	0	0	0	NONE	2314.0	1
