onset	duration	trial_type	trial_type_id	response_time	bad_epoch	outliers	event_num	response_accuracy
18.54541015625	0.2	FACES	1	0.661864397315185	0	0	1.0	1
20.0537109375	0.2	SCRAMBLED	0	0.479101073130551	0	0	7.0	1
21.4033203125	0.2	SCRAMBLED	0	0.439426057880155	0	0	15.0	1
22.6533203125	0.2	SCRAMBLED	0	0.360555046955596	0	0	23.0	1
23.7783203125	0.2	FACES	1	0.309981506282838	0	0	31.0	1
24.919921875	0.2	SCRAMBLED	0	0.338497206624652	0	0	39.0	1
25.953125	0.2	SCRAMBLED	0	0.381697407528918	0	0	47.0	1
27.2783203125	0.2	FACES	1	0.379197269437554	0	0	55.0	1
28.4033203125	0.2	SCRAMBLED	0	0.525210706736289	0	0	63.0	1
29.81982421875	0.2	FACES	1	0.42420005692702	0	0	71.0	1
31.01123046875	0.2	FACES	1	0.427770820373098	0	0	79.0	1
32.1279296875	0.2	FACES	1	0.368465661359551	0	0	87.0	1
33.3447265625	0.2	SCRAMBLED	0	0.4399138308072	0	0	95.0	1
34.5029296875	0.2	FACES	1	0.46073231740138	0	0	103.0	1
35.9111328125	0.2	SCRAMBLED	0	0.333524699692134	0	0	111.0	1
37.16943359375	0.2	SCRAMBLED	0	n/a	0	1	119.0	0
38.31103515625	0.2	SCRAMBLED	0	n/a	0	1	127.0	0
39.51953125	0.2	FACES	1	n/a	0	1	135.0	0
40.76904296875	0.2	FACES	1	0.400017265229963	0	0	143.0	1
41.994140625	0.2	SCRAMBLED	0	0.500380468919957	0	0	151.0	1
43.244140625	0.2	SCRAMBLED	0	0.673224737452529	0	0	159.0	1
44.90234375	0.2	SCRAMBLED	0	0.446589619069528	0	0	165.0	1
46.08544921875	0.2	FACES	1	0.451646339272884	0	0	173.0	1
47.46044921875	0.2	SCRAMBLED	0	0.365166251788196	0	0	181.0	1
48.64404296875	0.2	FACES	1	n/a	0	1	189.0	0
49.76025390625	0.2	FACES	1	0.741340898643557	0	0	197.0	1
51.2353515625	0.2	FACES	1	0.476077846868975	0	0	205.0	1
52.52685546875	0.2	FACES	1	0.560015236867002	0	0	213.0	1
53.751953125	0.2	SCRAMBLED	0	0.471142768056779	0	0	221.0	1
55.04345703125	0.2	SCRAMBLED	0	0.556124221518076	0	0	229.0	1
56.27685546875	0.2	SCRAMBLED	0	0.482464472714582	0	0	237.0	1
57.6435546875	0.2	SCRAMBLED	0	0.463891069680358	0	0	245.0	1
58.9267578125	0.2	FACES	1	0.435303833333819	0	0	253.0	1
60.259765625	0.2	SCRAMBLED	0	0.582359523057221	0	0	261.0	1
61.68505859375	0.2	FACES	1	0.707875027505452	0	0	269.0	1
63.30126953125	0.2	FACES	1	0.543165640260668	0	0	275.0	1
64.6513671875	0.2	FACES	1	0.609702576231939	0	0	283.0	1
66.15966796875	0.2	SCRAMBLED	0	0.599445158295111	0	0	289.0	1
67.4677734375	0.2	FACES	1	0.618238904297868	0	0	297.0	1
68.92626953125	0.2	SCRAMBLED	0	0.972333978364986	0	0	305.0	1
70.75927734375	0.2	FACES	1	0.610389563349599	0	0	310.0	1
72.16748046875	0.2	SCRAMBLED	0	0.698204385911595	0	0	318.0	1
73.6923828125	0.2	SCRAMBLED	0	0.482509446827407	0	0	324.0	1
75.04248046875	0.2	SCRAMBLED	0	0.347206790668679	0	0	332.0	1
76.142578125	0.2	FACES	1	0.41631208049921	0	0	340.0	1
77.2509765625	0.2	FACES	1	0.56524642040813	0	0	348.0	1
78.583984375	0.2	FACES	1	0.448807537057746	0	0	356.0	1
79.9755859375	0.2	FACES	1	0.449207474637205	0	0	364.0	1
81.12548828125	0.2	FACES	1	0.413487766588787	0	0	372.0	1
82.26708984375	0.2	SCRAMBLED	0	0.428749686464016	0	0	380.0	1
83.583984375	0.2	SCRAMBLED	0	0.420444265755577	0	0	388.0	1
84.95849609375	0.2	FACES	1	0.532493192760739	0	0	396.0	1
86.43359375	0.2	SCRAMBLED	0	n/a	0	1	404.0	0
87.650390625	0.2	SCRAMBLED	0	0.514211065019936	0	0	412.0	1
89.05029296875	0.2	FACES	1	0.417028647906136	0	0	420.0	1
90.216796875	0.2	SCRAMBLED	0	0.873390326702065	0	0	428.0	1
92.0166015625	0.2	SCRAMBLED	0	0.399042021215337	0	0	433.0	1
93.13330078125	0.2	SCRAMBLED	0	0.454712124930211	0	0	441.0	1
94.5498046875	0.2	FACES	1	0.485638316978111	0	0	449.0	1
95.79150390625	0.2	FACES	1	0.472328394330361	0	0	457.0	1
97.1748046875	0.2	FACES	1	0.383396764942518	0	0	465.0	1
98.349609375	0.2	SCRAMBLED	0	0.563153162208437	0	0	473.0	1
99.62451171875	0.2	SCRAMBLED	0	0.479324736335457	0	0	481.0	1
100.9580078125	0.2	FACES	1	0.452001000900054	0	0	489.0	1
102.1494140625	0.2	FACES	1	n/a	0	1	497.0	0
103.849609375	0.2	SCRAMBLED	0	0.396454047775933	0	0	503.0	1
105.0576171875	0.2	FACES	1	0.519029331875117	0	0	511.0	1
106.3408203125	0.2	FACES	1	0.426760562955224	0	0	519.0	1
107.59912109375	0.2	FACES	1	0.44122140031277	0	0	527.0	1
108.78271484375	0.2	SCRAMBLED	0	0.388331240075331	0	0	535.0	1
110.0576171875	0.2	FACES	1	0.444027905682105	0	0	543.0	1
111.43212890625	0.2	FACES	1	0.451973231649845	0	0	551.0	1
112.7158203125	0.2	FACES	1	0.483983028158036	0	0	559.0	1
114.00732421875	0.2	FACES	1	0.47657165658984	0	0	567.0	1
115.2236328125	0.2	SCRAMBLED	0	0.537311459615012	0	0	575.0	1
116.5986328125	0.2	SCRAMBLED	0	0.388378025225848	0	0	583.0	1
117.740234375	0.2	FACES	1	0.459884147893263	0	0	591.0	1
118.98193359375	0.2	FACES	1	0.500072290603839	0	0	599.0	1
120.44873046875	0.2	FACES	1	0.493376882762732	0	0	607.0	1
121.78173828125	0.2	SCRAMBLED	0	0.496052691549721	0	0	615.0	1
123.115234375	0.2	SCRAMBLED	0	0.430954021666821	0	0	623.0	1
124.45654296875	0.2	FACES	1	0.409845165297611	0	0	631.0	1
125.83154296875	0.2	SCRAMBLED	0	0.638324524142263	0	0	639.0	1
127.33984375	0.2	SCRAMBLED	0	0.407936632984274	0	0	645.0	1
128.58984375	0.2	FACES	1	0.472054625738565	0	0	653.0	1
129.78955078125	0.2	SCRAMBLED	0	0.64696649609732	0	0	661.0	1
131.30615234375	0.2	SCRAMBLED	0	0.499938273784664	0	0	667.0	1
132.69775390625	0.2	SCRAMBLED	0	0.538239918479121	0	0	675.0	1
133.998046875	0.2	FACES	1	0.445890558363772	0	0	683.0	1
135.25634765625	0.2	FACES	1	0.794995316957284	0	0	691.0	1
136.93115234375	0.2	FACES	1	0.41692964449021	0	0	697.0	1
138.26416015625	0.2	FACES	1	0.332885403244291	0	0	705.0	1
139.3310546875	0.2	FACES	1	0.491711633233535	0	0	713.0	1
140.72265625	0.2	SCRAMBLED	0	0.348125590662676	0	0	721.0	1
141.73095703125	0.2	FACES	1	0.483622631576964	0	0	729.0	1
142.95556640625	0.2	SCRAMBLED	0	n/a	0	1	737.0	0
144.24755859375	0.2	FACES	1	0.552101302227129	0	0	745.0	1
145.70556640625	0.2	FACES	1	0.476195262505371	0	0	753.0	1
146.92236328125	0.2	SCRAMBLED	0	0.486780780177014	0	0	761.0	1
148.08056640625	0.2	SCRAMBLED	0	0.482460548798826	0	0	769.0	1
149.3056640625	0.2	SCRAMBLED	0	0.462479969164178	0	0	777.0	1
150.64697265625	0.2	FACES	1	0.376538363672353	0	0	785.0	1
151.75537109375	0.2	FACES	1	0.459151582983395	0	0	793.0	1
152.94677734375	0.2	FACES	1	0.45029439933478	0	0	801.0	1
154.330078125	0.2	SCRAMBLED	0	0.405430156259627	0	0	809.0	1
155.4716796875	0.2	SCRAMBLED	0	0.463407522508987	0	0	817.0	1
156.88818359375	0.2	FACES	1	0.426012604221341	0	0	825.0	1
158.18017578125	0.2	FACES	1	0.94903738797575	0	0	833.0	1
159.93017578125	0.2	SCRAMBLED	0	0.515603451476636	0	0	838.0	1
161.21337890625	0.2	SCRAMBLED	0	0.537175329918227	0	0	846.0	1
162.46337890625	0.2	SCRAMBLED	0	0.521663788625574	0	0	854.0	1
163.81298828125	0.2	FACES	1	0.351836407721748	0	0	862.0	1
164.9296875	0.2	SCRAMBLED	0	0.487423396861686	0	0	870.0	1
166.11279296875	0.2	SCRAMBLED	0	0.590946862029341	0	0	878.0	1
167.67138671875	0.2	SCRAMBLED	0	0.480524850913753	0	0	884.0	1
169.06298828125	0.2	SCRAMBLED	0	0.480192525423263	0	0	892.0	1
170.32958984375	0.2	SCRAMBLED	0	0.464163027234918	0	0	900.0	1
171.47119140625	0.2	FACES	1	0.466566878467802	0	0	908.0	1
172.89599609375	0.2	SCRAMBLED	0	0.331524106275083	0	0	916.0	1
174.1708984375	0.2	SCRAMBLED	0	0.504210210814108	0	0	924.0	1
175.41259765625	0.2	FACES	1	0.417355238442724	0	0	932.0	1
176.7958984375	0.2	SCRAMBLED	0	0.444501190304436	0	0	940.0	1
177.94580078125	0.2	FACES	1	0.43450818393012	0	0	948.0	1
179.162109375	0.2	FACES	1	0.458597103486227	0	0	956.0	1
180.3623046875	0.2	SCRAMBLED	0	0.494786172240765	0	0	964.0	1
181.6953125	0.2	SCRAMBLED	0	0.454784264614318	0	0	972.0	1
182.9287109375	0.2	SCRAMBLED	0	0.455908919272133	0	0	980.0	1
184.07861328125	0.2	SCRAMBLED	0	0.396148284176888	0	0	988.0	1
185.26220703125	0.2	FACES	1	0.409006654659606	0	0	996.0	1
186.63671875	0.2	SCRAMBLED	0	0.462746191763927	0	0	1004.0	1
188.0537109375	0.2	FACES	1	0.692968372936321	0	0	1012.0	1
189.41162109375	0.2	SCRAMBLED	0	0.454182999966633	0	0	1020.0	1
190.77001953125	0.2	FACES	1	0.534092943079031	0	0	1028.0	1
192.16162109375	0.2	FACES	1	n/a	0	1	1036.0	0
193.2197265625	0.2	SCRAMBLED	0	0.503045713317988	0	0	1044.0	1
194.4033203125	0.2	FACES	1	0.53360969774667	0	0	1052.0	1
195.8115234375	0.2	SCRAMBLED	0	0.450429925352182	0	0	1060.0	1
197.203125	0.2	SCRAMBLED	0	0.405069155998717	0	0	1068.0	1
198.29443359375	0.2	SCRAMBLED	0	0.396228271693417	0	0	1076.0	1
199.54443359375	0.2	FACES	1	0.344151871240229	0	0	1084.0	1
200.77783203125	0.2	SCRAMBLED	0	0.546331938532148	0	0	1092.0	1
202.13623046875	0.2	SCRAMBLED	0	0.452698552407128	0	0	1100.0	1
203.36962890625	0.2	FACES	1	0.483429756020087	0	0	1108.0	1
204.66943359375	0.2	SCRAMBLED	0	0.837823651372673	0	0	1116.0	1
206.2109375	0.2	FACES	1	0.499304712291178	0	0	1122.0	1
207.66943359375	0.2	FACES	1	0.548583662564852	0	0	1130.0	1
209.05224609375	0.2	FACES	1	0.514418428882436	0	0	1138.0	1
210.42724609375	0.2	FACES	1	0.498663906644651	0	0	1146.0	1
211.78564453125	0.2	FACES	1	n/a	0	1	1154.0	0
213.1689453125	0.2	FACES	1	0.60747560305299	0	0	1162.0	1
226.29345703125	0.2	FACES	1	0.579032947914584	0	0	1166.0	1
227.84326171875	0.2	SCRAMBLED	0	0.505526533670036	0	0	1172.0	1
229.12646484375	0.2	SCRAMBLED	0	0.408119849671948	0	0	1180.0	1
230.201171875	0.2	SCRAMBLED	0	0.45659258615342	0	0	1188.0	1
231.4931640625	0.2	FACES	1	0.390893858981144	0	0	1196.0	1
232.826171875	0.2	SCRAMBLED	0	0.378363588233697	0	0	1204.0	1
233.94287109375	0.2	FACES	1	0.508873633911207	0	0	1212.0	1
235.17626953125	0.2	SCRAMBLED	0	0.441715210033635	0	0	1220.0	1
236.3759765625	0.2	FACES	1	0.406201054809117	0	0	1228.0	1
237.67578125	0.2	FACES	1	0.540053371292743	0	0	1236.0	1
239.05908203125	0.2	SCRAMBLED	0	0.419789575483264	0	0	1244.0	1
240.359375	0.2	FACES	1	0.358294871411999	0	0	1252.0	1
241.40087890625	0.2	FACES	1	0.498503629773495	0	0	1260.0	1
242.8671875	0.2	SCRAMBLED	0	0.459422333178736	0	0	1268.0	1
244.04248046875	0.2	FACES	1	0.387719712878152	0	0	1276.0	1
245.333984375	0.2	FACES	1	0.423508844053686	0	0	1284.0	1
246.64208984375	0.2	FACES	1	0.41478265882688	0	0	1292.0	1
248.01708984375	0.2	FACES	1	0.398454943032448	0	0	1300.0	1
249.30859375	0.2	FACES	1	0.343767931163711	0	0	1308.0	1
250.56689453125	0.2	FACES	1	0.383508143785548	0	0	1316.0	1
251.75048828125	0.2	SCRAMBLED	0	0.361736749313422	0	0	1324.0	1
252.8583984375	0.2	SCRAMBLED	0	0.355577408748559	0	0	1332.0	1
254.0	0.2	SCRAMBLED	0	0.343770044041321	0	0	1340.0	1
255.08349609375	0.2	SCRAMBLED	0	0.293575312170105	0	0	1348.0	1
256.13330078125	0.2	FACES	1	0.38365181947438	0	0	1356.0	1
257.4248046875	0.2	FACES	1	0.409175684881575	0	0	1364.0	1
258.64990234375	0.2	SCRAMBLED	0	0.437831438836383	0	0	1372.0	1
259.85009765625	0.2	SCRAMBLED	0	0.362919357190094	0	0	1380.0	1
261.02490234375	0.2	SCRAMBLED	0	n/a	0	1	1388.0	0
262.25830078125	0.2	SCRAMBLED	0	n/a	0	1	1396.0	0
263.24951171875	0.2	SCRAMBLED	0	0.561540130944195	0	0	1406.0	1
264.73291015625	0.2	SCRAMBLED	0	0.282741380439802	0	0	1414.0	1
265.80810546875	0.2	SCRAMBLED	0	0.302316589381007	0	0	1422.0	1
266.94140625	0.2	FACES	1	0.459842192176893	0	0	1430.0	1
268.1328125	0.2	FACES	1	0.341776996616773	0	0	1438.0	1
269.166015625	0.2	SCRAMBLED	0	0.362372725524892	0	0	1446.0	1
270.19091796875	0.2	SCRAMBLED	0	0.379196967597636	0	0	1454.0	1
271.22412109375	0.2	FACES	1	0.407321181871339	0	0	1462.0	1
272.37451171875	0.2	SCRAMBLED	0	0.417988799936666	0	0	1470.0	1
273.7490234375	0.2	FACES	1	0.249670013767172	0	0	1478.0	1
274.78271484375	0.2	FACES	1	0.417908812421047	0	0	1486.0	1
276.04052734375	0.2	SCRAMBLED	0	0.370750285917438	0	0	1494.0	1
277.31591796875	0.2	FACES	1	0.419186499797433	0	0	1502.0	1
278.52392578125	0.2	SCRAMBLED	0	0.422371512129303	0	0	1510.0	1
279.607421875	0.2	FACES	1	0.332771609683732	0	0	1518.0	1
280.8486328125	0.2	FACES	1	0.409833695389807	0	0	1526.0	1
282.19873046875	0.2	SCRAMBLED	0	0.347018442706485	0	0	1534.0	1
283.20703125	0.2	FACES	1	0.651067893705203	0	0	1542.0	1
284.76513671875	0.2	FACES	1	0.360079045776274	0	0	1548.0	1
285.990234375	0.2	FACES	1	0.426586099618362	0	0	1556.0	1
287.15673828125	0.2	SCRAMBLED	0	0.47077965491917	0	0	1564.0	1
288.5068359375	0.2	FACES	1	0.367699290405199	0	0	1572.0	1
289.7568359375	0.2	FACES	1	0.417058530034865	0	0	1580.0	1
290.9814453125	0.2	FACES	1	0.401314874025502	0	0	1588.0	1
292.1484375	0.2	SCRAMBLED	0	0.36311434562549	0	0	1596.0	1
293.33984375	0.2	FACES	1	0.367539617212969	0	0	1604.0	1
294.43994140625	0.2	FACES	1	0.375721283651728	0	0	1612.0	1
295.50634765625	0.2	SCRAMBLED	0	0.47084817252653	0	0	1620.0	1
296.8896484375	0.2	SCRAMBLED	0	n/a	0	1	1628.0	0
297.93115234375	0.2	FACES	1	0.684843452357654	0	0	1636.0	1
299.3310546875	0.2	SCRAMBLED	0	0.446287779386239	0	0	1644.0	1
300.72265625	0.2	SCRAMBLED	0	0.507286862699402	0	0	1652.0	1
301.94775390625	0.2	SCRAMBLED	0	0.413108052267944	0	0	1660.0	1
303.26416015625	0.2	FACES	1	0.418445785216136	0	0	1668.0	1
304.41455078125	0.2	FACES	1	0.36737692562383	0	0	1676.0	1
305.51416015625	0.2	FACES	1	0.391849483416536	0	0	1684.0	1
306.79736328125	0.2	SCRAMBLED	0	0.338628205046916	0	0	1692.0	1
307.93896484375	0.2	FACES	1	0.401339926719174	0	0	1700.0	1
309.005859375	0.2	SCRAMBLED	0	0.503942177175759	0	0	1708.0	1
310.43896484375	0.2	FACES	1	0.510413619972496	0	0	1716.0	1
311.88916015625	0.2	SCRAMBLED	0	0.496113663165943	0	0	1724.0	1
313.1220703125	0.2	SCRAMBLED	0	n/a	0	1	1732.0	0
314.34716796875	0.2	SCRAMBLED	0	0.529910652435774	0	0	1740.0	1
315.8056640625	0.2	FACES	1	0.408957152951643	0	0	1748.0	1
317.09716796875	0.2	FACES	1	0.399763418056864	0	0	1756.0	1
318.25537109375	0.2	FACES	1	0.424923566646157	0	0	1764.0	1
319.44677734375	0.2	FACES	1	0.443111520405637	0	0	1772.0	1
320.7216796875	0.2	FACES	1	0.434270636099882	0	0	1780.0	1
321.91357421875	0.2	FACES	1	0.384229238787157	0	0	1788.0	1
323.080078125	0.2	FACES	1	0.367067841788867	0	0	1796.0	1
324.10498046875	0.2	FACES	1	0.349862376196597	0	0	1804.0	1
325.271484375	0.2	SCRAMBLED	0	0.439259744215178	0	0	1812.0	1
326.54638671875	0.2	SCRAMBLED	0	0.445893576761137	0	0	1820.0	1
327.92138671875	0.2	SCRAMBLED	0	0.339304325936155	0	0	1828.0	1
329.146484375	0.2	FACES	1	0.392504173688394	0	0	1836.0	1
330.3046875	0.2	SCRAMBLED	0	n/a	0	1	1844.0	0
331.37109375	0.2	FACES	1	0.458089710979493	0	0	1852.0	1
332.6376953125	0.2	FACES	1	n/a	0	1	1860.0	0
333.9794921875	0.2	FACES	1	0.417890098360658	0	0	1868.0	1
335.279296875	0.2	FACES	1	0.384487009876466	0	0	1876.0	1
336.59619140625	0.2	FACES	1	0.468368559533701	0	0	1884.0	1
337.98779296875	0.2	SCRAMBLED	0	0.372858636101228	0	0	1892.0	1
339.220703125	0.2	SCRAMBLED	0	0.36506936124988	0	0	1900.0	1
340.35400390625	0.2	SCRAMBLED	0	0.454642701803095	0	0	1908.0	1
341.69580078125	0.2	SCRAMBLED	0	0.429661242305428	0	0	1916.0	1
343.05419921875	0.2	SCRAMBLED	0	0.415127963424311	0	0	1924.0	1
344.30419921875	0.2	FACES	1	0.509483651910159	0	0	1932.0	1
345.62060546875	0.2	FACES	1	0.38565180921205	0	0	1940.0	1
346.83740234375	0.2	SCRAMBLED	0	0.380589052213963	0	0	1948.0	1
348.0869140625	0.2	SCRAMBLED	0	n/a	0	1	1956.0	0
349.25390625	0.2	SCRAMBLED	0	n/a	0	1	1964.0	0
350.48681640625	0.2	FACES	1	0.476824296404175	0	0	1972.0	1
351.8037109375	0.2	SCRAMBLED	0	0.503995904639396	0	0	1980.0	1
353.26171875	0.2	FACES	1	0.359072108594319	0	0	1988.0	1
354.3037109375	0.2	FACES	1	0.516295569868817	0	0	1996.0	1
355.5615234375	0.2	SCRAMBLED	0	0.43830744001616	0	0	2004.0	1
356.9033203125	0.2	FACES	1	0.936024777415696	0	0	2012.0	1
358.794921875	0.2	FACES	1	0.468041667157195	0	0	2017.0	1
360.05322265625	0.2	SCRAMBLED	0	0.378922595326458	0	0	2025.0	1
361.39501953125	0.2	SCRAMBLED	0	0.713427066628356	0	0	2033.0	1
363.044921875	0.2	SCRAMBLED	0	0.480497383502552	0	0	2039.0	1
364.21142578125	0.2	SCRAMBLED	0	0.420221508069517	0	0	2047.0	1
365.56103515625	0.2	FACES	1	0.465997005146619	0	0	2055.0	1
366.9609375	0.2	FACES	1	0.508545836015855	0	0	2063.0	1
368.302734375	0.2	FACES	1	0.360082366012648	0	0	2071.0	1
369.32763671875	0.2	SCRAMBLED	0	0.454694618229041	0	0	2079.0	1
370.68603515625	0.2	FACES	1	n/a	0	1	2087.0	0
371.81103515625	0.2	SCRAMBLED	0	0.363040093063319	0	0	2095.0	1
373.0107421875	0.2	SCRAMBLED	0	0.405612165588082	0	0	2103.0	1
374.1689453125	0.2	FACES	1	0.49241522153352	0	0	2111.0	1
375.62744140625	0.2	SCRAMBLED	0	n/a	0	1	2119.0	0
376.935546875	0.2	SCRAMBLED	0	n/a	0	1	2127.0	0
378.0771484375	0.2	SCRAMBLED	0	0.462016343411506	0	0	2135.0	1
379.46875	0.2	FACES	1	0.500246150261319	0	0	2143.0	1
380.876953125	0.2	FACES	1	0.584208592953019	0	0	2151.0	1
382.27685546875	0.2	SCRAMBLED	0	0.497065665525042	0	0	2159.0	1
383.501953125	0.2	FACES	1	0.483536305427606	0	0	2167.0	1
384.943359375	0.2	SCRAMBLED	0	0.563899008064254	0	0	2175.0	1
386.46875	0.2	SCRAMBLED	0	0.473555674480394	0	0	2181.0	1
387.81005859375	0.2	SCRAMBLED	0	0.397551838701929	0	0	2189.0	1
388.85986328125	0.2	FACES	1	0.466418071503995	0	0	2197.0	1
390.03515625	0.2	FACES	1	0.366392626418929	0	0	2205.0	1
391.16845703125	0.2	SCRAMBLED	0	0.388315242571935	0	0	2213.0	1
392.23486328125	0.2	FACES	1	0.442296251422704	0	0	2221.0	1
393.3349609375	0.2	FACES	1	0.451501456225287	0	0	2229.0	1
394.46826171875	0.2	SCRAMBLED	0	0.388897793159686	0	0	2237.0	1
395.79296875	0.2	SCRAMBLED	0	0.363559559156784	0	0	2245.0	1
396.8095703125	0.2	FACES	1	0.62615223525836	0	0	2253.0	1
398.4013671875	0.2	SCRAMBLED	0	0.470295805907426	0	0	2259.0	1
399.7509765625	0.2	FACES	1	0.476375158956216	0	0	2267.0	1
401.11767578125	0.2	SCRAMBLED	0	0.430088043616706	0	0	2275.0	1
402.234375	0.2	SCRAMBLED	0	0.60446958165312	0	0	2283.0	1
403.7177734375	0.2	FACES	1	0.519244845408139	0	0	2291.0	1
405.017578125	0.2	SCRAMBLED	0	0.388851611688096	0	0	2299.0	1
406.35107421875	0.2	SCRAMBLED	0	0.389129907875486	0	0	2307.0	1
407.45068359375	0.2	SCRAMBLED	0	0.546243801344644	0	0	2315.0	1
408.85888671875	0.2	SCRAMBLED	0	0.49706113792945	0	0	2323.0	1
410.04248046875	0.2	SCRAMBLED	0	0.496755374331315	0	0	2331.0	1
411.2421875	0.2	FACES	1	0.466536090819773	0	0	2339.0	1
412.46728515625	0.2	FACES	1	0.433285129535761	0	0	2347.0	1
429.89990234375	0.2	SCRAMBLED	0	0.594566221664081	0	0	2351.0	1
431.2998046875	0.2	FACES	1	0.459477268000683	0	0	2359.0	1
432.56640625	0.2	FACES	1	0.351655605751148	0	0	2367.0	1
433.7080078125	0.2	SCRAMBLED	0	0.430225380672709	0	0	2375.0	1
435.01611328125	0.2	FACES	1	0.526855733006869	0	0	2383.0	1
436.2744140625	0.2	FACES	1	0.51713740074365	0	0	2391.0	1
437.69921875	0.2	FACES	1	0.317244070887682	0	0	2399.0	1
438.67431640625	0.2	FACES	1	n/a	0	1	2409.0	0
440.19091796875	0.2	SCRAMBLED	0	n/a	0	1	2415.0	0
441.50732421875	0.2	SCRAMBLED	0	0.397138922015529	0	0	2423.0	1
442.56591796875	0.2	SCRAMBLED	0	0.470907333104606	0	0	2431.0	1
443.94873046875	0.2	SCRAMBLED	0	0.396505360521587	0	0	2439.0	1
445.173828125	0.2	FACES	1	0.39250507920724	0	0	2447.0	1
446.423828125	0.2	FACES	1	0.426654617226632	0	0	2455.0	1
447.73193359375	0.2	FACES	1	0.393461307322013	0	0	2463.0	1
449.0068359375	0.2	FACES	1	0.318426075085426	0	0	2471.0	1
450.115234375	0.2	SCRAMBLED	0	0.504932513174481	0	0	2479.0	1
451.32373046875	0.2	FACES	1	n/a	0	1	2487.0	0
452.68994140625	0.2	SCRAMBLED	0	0.42246296955318	0	0	2495.0	1
453.79833984375	0.2	SCRAMBLED	0	0.487108276232902	0	0	2503.0	1
454.93994140625	0.2	FACES	1	0.717129432176534	0	0	2511.0	1
456.39013671875	0.2	FACES	1	0.867004606375303	0	0	2519.0	1
457.97314453125	0.2	SCRAMBLED	0	0.811762209490553	0	0	2525.0	1
459.48974609375	0.2	FACES	1	0.75106255114315	0	0	2531.0	1
461.14794921875	0.2	FACES	1	0.575693997344388	0	0	2537.0	1
462.58154296875	0.2	FACES	1	0.709627206862933	0	0	2545.0	1
464.19775390625	0.2	FACES	1	0.667539285189378	0	0	2551.0	1
465.69775390625	0.2	SCRAMBLED	0	0.680508732674753	0	0	2558.0	1
467.21435546875	0.2	SCRAMBLED	0	0.606536277960458	0	0	2564.0	1
468.5810546875	0.2	FACES	1	0.617197557392956	0	0	2572.0	1
469.88916015625	0.2	SCRAMBLED	0	0.688223151284546	0	0	2580.0	1
471.33935546875	0.2	SCRAMBLED	0	0.5464267161924	0	0	2588.0	1
472.76416015625	0.2	FACES	1	0.601599689950035	0	0	2596.0	1
474.08056640625	0.2	SCRAMBLED	0	0.870600422515054	0	0	2604.0	1
475.8388671875	0.2	SCRAMBLED	0	0.613643696968666	0	0	2609.0	1
477.4140625	0.2	SCRAMBLED	0	0.50513202920456	0	0	2615.0	1
478.70556640625	0.2	SCRAMBLED	0	0.647063990314564	0	0	2623.0	1
480.0556640625	0.2	FACES	1	0.658224210741992	0	0	2631.0	1
481.572265625	0.2	SCRAMBLED	0	0.764190464461535	0	0	2637.0	1
483.30517578125	0.2	SCRAMBLED	0	0.630179078465517	0	0	2642.0	1
484.73876953125	0.2	FACES	1	0.684039049603598	0	0	2650.0	1
486.138671875	0.2	SCRAMBLED	0	0.763298528199357	0	0	2658.0	1
487.7802734375	0.2	SCRAMBLED	0	0.597806168818352	0	0	2664.0	1
489.171875	0.2	SCRAMBLED	0	0.555311669092134	0	0	2672.0	1
490.43017578125	0.2	FACES	1	0.551463514977513	0	0	2680.0	1
491.63818359375	0.2	FACES	1	0.601188282462772	0	0	2688.0	1
493.0966796875	0.2	FACES	1	0.450895060303083	0	0	2696.0	1
494.23828125	0.2	SCRAMBLED	0	0.4720525128605	0	0	2704.0	1
495.56298828125	0.2	FACES	1	0.367924160968414	0	0	2712.0	1
496.76318359375	0.2	FACES	1	0.442165253000439	0	0	2720.0	1
498.0126953125	0.2	FACES	1	0.460174215827919	0	0	2728.0	1
499.3876953125	0.2	SCRAMBLED	0	0.414089031236472	0	0	2736.0	1
500.462890625	0.2	SCRAMBLED	0	0.644392709122712	0	0	2744.0	1
501.89599609375	0.2	SCRAMBLED	0	0.57842142071695	0	0	2752.0	1
503.37939453125	0.2	SCRAMBLED	0	0.456553045155033	0	0	2760.0	1
504.62109375	0.2	SCRAMBLED	0	0.613945838490963	0	0	2768.0	1
506.1708984375	0.2	FACES	1	0.53565043584149	0	0	2774.0	1
507.6123046875	0.2	FACES	1	n/a	0	1	2782.0	0
509.0791015625	0.2	FACES	1	0.459934555119617	0	0	2790.0	1
510.19580078125	0.2	FACES	1	0.56780451171835	0	0	2798.0	1
511.4287109375	0.2	SCRAMBLED	0	0.604219356556314	0	0	2806.0	1
512.79541015625	0.2	SCRAMBLED	0	0.512179080276383	0	0	2814.0	1
514.26220703125	0.2	FACES	1	0.434208758965269	0	0	2822.0	1
515.38720703125	0.2	SCRAMBLED	0	0.653185600918732	0	0	2830.0	1
517.00341796875	0.2	SCRAMBLED	0	0.545840845368275	0	0	2836.0	1
518.37841796875	0.2	FACES	1	0.483998120142132	0	0	2844.0	1
519.6201171875	0.2	FACES	1	0.550125157824368	0	0	2852.0	1
521.0615234375	0.2	SCRAMBLED	0	0.545864087024256	0	0	2860.0	1
522.294921875	0.2	SCRAMBLED	0	0.563130222392829	0	0	2868.0	1
523.669921875	0.2	SCRAMBLED	0	0.563051140395601	0	0	2876.0	1
524.9365234375	0.2	FACES	1	0.475261370527278	0	0	2884.0	1
526.1279296875	0.2	SCRAMBLED	0	0.553893928102298	0	0	2892.0	1
527.58642578125	0.2	FACES	1	n/a	0	1	2900.0	0
528.8779296875	0.2	FACES	1	n/a	0	1	2908.0	0
530.27783203125	0.2	FACES	1	0.334748055925957	0	0	2916.0	1
531.41943359375	0.2	FACES	1	0.451904714041575	0	0	2924.0	1
532.76123046875	0.2	SCRAMBLED	0	n/a	0	1	2932.0	0
533.8779296875	0.2	FACES	1	n/a	0	1	2940.0	0
535.5361328125	0.2	FACES	1	0.452256960951217	0	0	2946.0	1
536.75244140625	0.2	SCRAMBLED	0	0.695834340723195	0	0	2954.0	1
538.25244140625	0.2	FACES	1	0.41915148639464	0	0	2961.0	1
539.42724609375	0.2	FACES	1	0.400491757211057	0	0	2969.0	1
540.6357421875	0.2	FACES	1	0.409513745326421	0	0	2977.0	1
541.87744140625	0.2	SCRAMBLED	0	0.456611903892735	0	0	2985.0	1
543.22705078125	0.2	SCRAMBLED	0	0.505119351938447	0	0	2993.0	1
544.6689453125	0.2	SCRAMBLED	0	0.303520024195677	0	0	3001.0	1
545.63525390625	0.2	SCRAMBLED	0	0.495816049238329	0	0	3011.0	1
546.86865234375	0.2	SCRAMBLED	0	0.694521639943105	0	0	3019.0	1
548.30224609375	0.2	SCRAMBLED	0	0.5138778340106	0	0	3027.0	1
549.5185546875	0.2	FACES	1	0.466796880305992	0	0	3035.0	1
550.90185546875	0.2	SCRAMBLED	0	0.513056528233847	0	0	3043.0	1
552.3017578125	0.2	SCRAMBLED	0	0.581086665114981	0	0	3051.0	1
553.5849609375	0.2	FACES	1	0.517031756854976	0	0	3059.0	1
554.943359375	0.2	SCRAMBLED	0	0.405063421044815	0	0	3067.0	1
556.1767578125	0.2	FACES	1	n/a	0	1	3075.0	0
557.57666015625	0.2	FACES	1	0.400549710429914	0	0	3083.0	1
558.8095703125	0.2	SCRAMBLED	0	0.47253424899418	0	0	3091.0	1
560.2431640625	0.2	FACES	1	0.617599909689488	0	0	3099.0	1
561.79296875	0.2	FACES	1	0.43494886986673	0	0	3105.0	1
563.009765625	0.2	FACES	1	0.551260678710605	0	0	3113.0	1
564.24267578125	0.2	FACES	1	1.05832448188494	0	0	3121.0	1
566.13427734375	0.2	FACES	1	0.493241054905411	0	0	3125.0	1
567.5595703125	0.2	SCRAMBLED	0	0.397797234363679	0	0	3133.0	1
568.80078125	0.2	SCRAMBLED	0	0.529909746916474	0	0	3141.0	1
569.99267578125	0.2	SCRAMBLED	0	0.429967005904473	0	0	3149.0	1
571.35107421875	0.2	FACES	1	0.566747469149504	0	0	3157.0	1
572.7255859375	0.2	FACES	1	0.434116999701473	0	0	3165.0	1
573.87548828125	0.2	SCRAMBLED	0	0.436239838189977	0	0	3173.0	1
574.9921875	0.2	FACES	1	0.533834870149803	0	0	3181.0	1
576.39208984375	0.2	SCRAMBLED	0	0.438413083904834	0	0	3189.0	1
577.6337890625	0.2	FACES	1	0.601845689291622	0	0	3197.0	1
579.12548828125	0.2	SCRAMBLED	0	0.480358537248776	0	0	3205.0	1
580.33349609375	0.2	FACES	1	0.575077338872688	0	0	3213.0	1
581.7919921875	0.2	FACES	1	0.426731888185714	0	0	3221.0	1
582.90869140625	0.2	SCRAMBLED	0	0.492929254513456	0	0	3229.0	1
n/a	0.2	FACES	1	0.634430490395971	1	0	n/a	1
n/a	0.2	FACES	1	n/a	1	1	n/a	0
587.06689453125	0.2	SCRAMBLED	0	0.396347800207423	0	0	3237.0	1
588.27490234375	0.2	SCRAMBLED	0	0.480269192702508	0	0	3245.0	1
589.533203125	0.2	SCRAMBLED	0	0.397460984956979	0	0	3253.0	1
n/a	0.2	SCRAMBLED	0	0.521380663002674	1	0	n/a	1
592.2998046875	0.2	SCRAMBLED	0	0.372783176180747	0	0	3261.0	1
593.5078125	0.2	FACES	1	0.426066029845515	0	0	3269.0	1
594.84130859375	0.2	SCRAMBLED	0	0.480213050521797	0	0	3277.0	1
596.23291015625	0.2	SCRAMBLED	0	0.464383672042459	0	0	3285.0	1
597.4326171875	0.2	FACES	1	0.491460804456892	0	0	3293.0	1
598.78271484375	0.2	FACES	1	0.418405338698904	0	0	3301.0	1
600.03271484375	0.2	FACES	1	0.468171458220695	0	0	3309.0	1
601.3828125	0.2	FACES	1	0.375337947255048	0	0	3317.0	1
602.61572265625	0.2	FACES	1	0.426564367161063	0	0	3325.0	1
603.8740234375	0.2	FACES	1	0.425319882149779	0	0	3333.0	1
605.06591796875	0.2	SCRAMBLED	0	0.505401572041592	0	0	3341.0	1
606.27392578125	0.2	FACES	1	0.525518885052406	0	0	3349.0	1
607.6904296875	0.2	SCRAMBLED	0	n/a	0	1	3357.0	0
608.8408203125	0.2	SCRAMBLED	0	n/a	0	1	3365.0	0
610.3740234375	0.2	SCRAMBLED	0	0.430119736783581	0	0	3371.0	1
611.70703125	0.2	FACES	1	0.392054130721135	0	0	3379.0	1
612.7568359375	0.2	FACES	1	0.858061398417249	0	0	3387.0	1
614.5068359375	0.2	SCRAMBLED	0	0.506164622759115	0	0	3392.0	1
615.865234375	0.2	SCRAMBLED	0	0.555037900499883	0	0	3400.0	1
617.39013671875	0.2	SCRAMBLED	0	0.421673055103838	0	0	3406.0	1
618.5234375	0.2	SCRAMBLED	0	0.463614282691651	0	0	3414.0	1
619.84814453125	0.2	SCRAMBLED	0	0.462876586507264	0	0	3422.0	1
621.0732421875	0.2	SCRAMBLED	0	0.529601870440274	0	0	3430.0	1
622.556640625	0.2	FACES	1	0.568647248112484	0	0	3438.0	1
624.0146484375	0.2	SCRAMBLED	0	0.504903234725134	0	0	3446.0	1
625.40625	0.2	SCRAMBLED	0	0.522535501628681	0	0	3454.0	1
626.6064453125	0.2	FACES	1	0.558580592855378	0	0	3462.0	1
627.94775390625	0.2	FACES	1	0.876223092124292	0	0	3470.0	1
629.63134765625	0.2	FACES	1	0.551380207225066	0	0	3476.0	1
657.6796875	0.2	SCRAMBLED	0	0.614665424294344	0	0	3480.0	1
658.962890625	0.2	SCRAMBLED	0	0.52925716952268	0	0	3488.0	1
660.3212890625	0.2	FACES	1	0.525946591882985	0	0	3496.0	1
661.52978515625	0.2	FACES	1	0.566687403052583	0	0	3504.0	1
662.779296875	0.2	FACES	1	0.357866862741957	0	0	3512.0	1
664.02099609375	0.2	FACES	1	0.351386666593953	0	0	3520.0	1
665.25439453125	0.2	FACES	1	0.34355966178282	0	0	3528.0	1
666.32958984375	0.2	FACES	1	0.375650955005767	0	0	3536.0	1
667.5126953125	0.2	FACES	1	0.310267952141658	0	0	3544.0	1
668.654296875	0.2	SCRAMBLED	0	0.421967348794169	0	0	3552.0	1
669.94580078125	0.2	SCRAMBLED	0	0.338326667204001	0	0	3560.0	1
671.095703125	0.2	SCRAMBLED	0	0.388065017475128	0	0	3568.0	1
672.33740234375	0.2	FACES	1	0.434528407189191	0	0	3576.0	1
673.50390625	0.2	FACES	1	0.617547993264452	0	0	3584.0	1
675.037109375	0.2	SCRAMBLED	0	0.512940319956215	0	0	3590.0	1
n/a	0.2	FACES	1	0.534028047547054	1	0	n/a	1
677.4287109375	0.2	SCRAMBLED	0	0.579383987465462	0	0	3598.0	1
678.8369140625	0.2	FACES	1	0.60074397444987	0	0	3606.0	1
680.2451171875	0.2	FACES	1	0.418624474308217	0	0	3614.0	1
681.5537109375	0.2	SCRAMBLED	0	0.363290620000043	0	0	3622.0	1
682.59521484375	0.2	FACES	1	0.450464636915513	0	0	3630.0	1
683.86181640625	0.2	SCRAMBLED	0	0.387895081733859	0	0	3638.0	1
684.91162109375	0.2	SCRAMBLED	0	0.41349018130586	0	0	3646.0	1
686.0869140625	0.2	SCRAMBLED	0	0.378858001634399	0	0	3654.0	1
687.228515625	0.2	SCRAMBLED	0	0.378422446971854	0	0	3662.0	1
688.38671875	0.2	FACES	1	0.484079013177507	0	0	3670.0	1
689.60302734375	0.2	FACES	1	0.47513218314316	0	0	3678.0	1
690.8115234375	0.2	FACES	1	0.44217853394639	0	0	3686.0	1
691.99462890625	0.2	SCRAMBLED	0	0.403589537874268	0	0	3694.0	1
693.328125	0.2	FACES	1	0.45914343331151	0	0	3702.0	1
n/a	0.2	SCRAMBLED	0	0.504699794779299	1	0	n/a	1
n/a	0.2	FACES	1	0.524520701221718	1	0	n/a	1
697.16943359375	0.2	FACES	1	n/a	0	1	3710.0	0
698.64453125	0.2	FACES	1	0.385207199359684	0	0	3718.0	1
699.98583984375	0.2	SCRAMBLED	0	0.397166389427184	0	0	3726.0	1
701.21923828125	0.2	FACES	1	0.385017644038726	0	0	3734.0	1
702.5693359375	0.2	SCRAMBLED	0	0.538951354611072	0	0	3742.0	1
703.96923828125	0.2	SCRAMBLED	0	0.554947046755387	0	0	3750.0	1
705.3857421875	0.2	SCRAMBLED	0	0.437299899155278	0	0	3758.0	1
706.50244140625	0.2	FACES	1	0.46704167228836	0	0	3766.0	1
707.92724609375	0.2	FACES	1	0.467580456121595	0	0	3774.0	1
709.3603515625	0.2	SCRAMBLED	0	0.663733086790671	0	0	3782.0	1
710.90185546875	0.2	FACES	1	0.549858331545238	0	0	3788.0	1
712.31884765625	0.2	SCRAMBLED	0	0.530409593431159	0	0	3796.0	1
713.68505859375	0.2	SCRAMBLED	0	0.488462630888989	0	0	3804.0	1
714.8603515625	0.2	SCRAMBLED	0	0.470669483434449	0	0	3812.0	1
716.06005859375	0.2	FACES	1	0.408062500132019	0	0	3820.0	1
717.31005859375	0.2	SCRAMBLED	0	0.479774477462342	0	0	3828.0	1
718.57666015625	0.2	SCRAMBLED	0	0.496962134513979	0	0	3836.0	1
720.00146484375	0.2	FACES	1	0.425694767035566	0	0	3844.0	1
721.18505859375	0.2	FACES	1	0.482621127509901	0	0	3852.0	1
722.35986328125	0.2	SCRAMBLED	0	0.519802041462299	0	0	3860.0	1
723.79296875	0.2	SCRAMBLED	0	0.388726951899116	0	0	3868.0	1
725.04296875	0.2	SCRAMBLED	0	0.380258537762074	0	0	3876.0	1
726.33447265625	0.2	SCRAMBLED	0	0.354863256059616	0	0	3884.0	1
727.56787109375	0.2	FACES	1	0.435331904424402	0	0	3892.0	1
728.88427734375	0.2	FACES	1	0.609356064276199	0	0	3900.0	1
730.201171875	0.2	FACES	1	0.566837115535236	0	0	3908.0	1
731.50927734375	0.2	SCRAMBLED	0	0.494989914026974	0	0	3916.0	1
732.75927734375	0.2	FACES	1	0.506871531296383	0	0	3924.0	1
734.1591796875	0.2	SCRAMBLED	0	0.547584271375854	0	0	3932.0	1
735.392578125	0.2	SCRAMBLED	0	0.469710840602602	0	0	3940.0	1
736.61767578125	0.2	FACES	1	0.424973370194039	0	0	3948.0	1
737.93408203125	0.2	SCRAMBLED	0	0.346333266626516	0	0	3956.0	1
739.1171875	0.2	SCRAMBLED	0	n/a	0	1	3964.0	0
740.14208984375	0.2	FACES	1	0.526674931037178	0	0	3972.0	1
741.6337890625	0.2	SCRAMBLED	0	0.255179795334698	0	0	3980.0	1
742.82568359375	0.2	SCRAMBLED	0	n/a	0	1	3988.0	0
743.81689453125	0.2	SCRAMBLED	0	n/a	0	1	3998.0	0
745.10888671875	0.2	FACES	1	0.476337127156512	0	0	4006.0	1
746.466796875	0.2	FACES	1	0.434373563432018	0	0	4014.0	1
747.83349609375	0.2	FACES	1	0.434910838067481	0	0	4022.0	1
749.1083984375	0.2	SCRAMBLED	0	0.546064508573181	0	0	4030.0	1
750.6083984375	0.2	FACES	1	0.567009465994488	0	0	4037.0	1
751.88330078125	0.2	FACES	1	0.50015076892123	0	0	4045.0	1
753.24169921875	0.2	FACES	1	0.457739275107997	0	0	4053.0	1
754.4580078125	0.2	FACES	1	n/a	0	1	4061.0	0
755.8330078125	0.2	SCRAMBLED	0	0.562210516879531	0	0	4069.0	1
757.19970703125	0.2	FACES	1	0.449847072924968	0	0	4077.0	1
758.5830078125	0.2	FACES	1	n/a	0	1	4085.0	0
759.76611328125	0.2	SCRAMBLED	0	0.687884789000236	0	0	4093.0	1
761.3662109375	0.2	SCRAMBLED	0	0.54614751448571	0	0	4099.0	1
762.64111328125	0.2	FACES	1	0.499936764586892	0	0	4107.0	1
764.0078125	0.2	SCRAMBLED	0	0.463244227240466	0	0	4115.0	1
765.28271484375	0.2	SCRAMBLED	0	0.470581044407481	0	0	4123.0	1
766.607421875	0.2	SCRAMBLED	0	0.522053765495912	0	0	4131.0	1
768.07421875	0.2	SCRAMBLED	0	0.438518727793962	0	0	4139.0	1
769.3408203125	0.2	FACES	1	0.468277705788751	0	0	4147.0	1
770.56591796875	0.2	FACES	1	0.675575766741531	0	0	4155.0	1
772.1572265625	0.2	SCRAMBLED	0	0.53793656959806	0	0	4161.0	1
773.50732421875	0.2	SCRAMBLED	0	1.0381944916071	0	0	4169.0	1
775.27392578125	0.2	FACES	1	0.500054482062296	0	0	4173.0	1
776.48193359375	0.2	FACES	1	0.50810635743801	0	0	4181.0	1
777.77392578125	0.2	FACES	1	0.401108113843293	0	0	4189.0	1
778.98193359375	0.2	FACES	1	0.350314833881384	0	0	4197.0	1
780.2900390625	0.2	FACES	1	0.426571309474639	0	0	4205.0	1
781.57373046875	0.2	FACES	1	0.359954084146921	0	0	4213.0	1
782.59033203125	0.2	FACES	1	0.466897996599982	0	0	4221.0	1
783.81494140625	0.2	FACES	1	0.374714648310146	0	0	4229.0	1
785.0732421875	0.2	FACES	1	0.401406331449834	0	0	4237.0	1
786.36474609375	0.2	SCRAMBLED	0	0.454801469476479	0	0	4245.0	1
787.59814453125	0.2	FACES	1	0.667922923425976	0	0	4253.0	1
789.181640625	0.2	SCRAMBLED	0	n/a	0	1	4259.0	0
790.41455078125	0.2	FACES	1	0.494187020470235	0	0	4267.0	1
791.83984375	0.2	SCRAMBLED	0	0.405360129453584	0	0	4275.0	1
792.98974609375	0.2	SCRAMBLED	0	0.504278426582459	0	0	4283.0	1
794.14794921875	0.2	FACES	1	0.450486671212275	0	0	4291.0	1
795.3642578125	0.2	SCRAMBLED	0	0.437407957761934	0	0	4299.0	1
796.66455078125	0.2	SCRAMBLED	0	0.347583486593066	0	0	4307.0	1
797.7392578125	0.2	FACES	1	0.391506593537088	0	0	4315.0	1
798.84765625	0.2	SCRAMBLED	0	0.46092760767624	0	0	4323.0	1
800.08935546875	0.2	FACES	1	n/a	0	1	4331.0	0
801.822265625	0.2	FACES	1	0.409902514837995	0	0	4336.0	1
803.18896484375	0.2	FACES	1	0.442825074546818	0	0	4344.0	1
804.54736328125	0.2	SCRAMBLED	0	0.421172001230843	0	0	4352.0	1
805.8974609375	0.2	SCRAMBLED	0	0.430233530343685	0	0	4360.0	1
807.23876953125	0.2	SCRAMBLED	0	0.422812198065913	0	0	4368.0	1
808.63037109375	0.2	SCRAMBLED	0	0.380261254318611	0	0	4376.0	1
809.8720703125	0.2	SCRAMBLED	0	0.389060786588743	0	0	4384.0	1
810.94677734375	0.2	SCRAMBLED	0	0.445354491087528	0	0	4392.0	1
812.07177734375	0.2	FACES	1	0.500126621746858	0	0	4400.0	1
813.4384765625	0.2	SCRAMBLED	0	0.471868994333818	0	0	4408.0	1
814.58837890625	0.2	FACES	1	0.583413245389238	0	0	4416.0	1
815.9384765625	0.2	SCRAMBLED	0	0.452272656614696	0	0	4424.0	1
817.24658203125	0.2	SCRAMBLED	0	0.448056559926954	0	0	4432.0	1
818.3798828125	0.2	FACES	1	0.44186250779876	0	0	4440.0	1
819.73828125	0.2	SCRAMBLED	0	0.488818499875379	0	0	4448.0	1
820.8798828125	0.2	FACES	1	0.566570289255651	0	0	4456.0	1
822.23828125	0.2	SCRAMBLED	0	0.563567889932528	0	0	4464.0	1
823.6630859375	0.2	SCRAMBLED	0	0.429212406697843	0	0	4472.0	1
824.8212890625	0.2	FACES	1	0.449829566223343	0	0	4480.0	1
825.9794921875	0.2	FACES	1	0.493029163448227	0	0	4488.0	1
827.4130859375	0.2	SCRAMBLED	0	0.389112401173406	0	0	4496.0	1
828.70458984375	0.2	FACES	1	0.53359128552529	0	0	4504.0	1
830.17919921875	0.2	SCRAMBLED	0	0.421309338285937	0	0	4512.0	1
831.4794921875	0.2	FACES	1	n/a	0	1	4520.0	0
832.83740234375	0.2	FACES	1	0.490346110509563	0	0	4528.0	1
833.99560546875	0.2	SCRAMBLED	0	0.513634249386087	0	0	4536.0	1
835.24560546875	0.2	SCRAMBLED	0	0.629307667300964	0	0	4544.0	1
836.83740234375	0.2	SCRAMBLED	0	0.489113397245092	0	0	4550.0	1
838.037109375	0.2	FACES	1	1.09623162211392	0	0	4558.0	1
839.87060546875	0.2	SCRAMBLED	0	0.535633834658256	0	0	4562.0	1
841.3369140625	0.2	FACES	1	0.568921620384572	0	0	4570.0	1
842.59521484375	0.2	SCRAMBLED	0	0.471250524824427	0	0	4578.0	1
843.90380859375	0.2	SCRAMBLED	0	0.462509549452989	0	0	4586.0	1
845.29541015625	0.2	FACES	1	0.476143044240416	0	0	4594.0	1
846.4619140625	0.2	SCRAMBLED	0	0.454733857387509	0	0	4602.0	1
847.6533203125	0.2	SCRAMBLED	0	0.521045922794656	0	0	4610.0	1
848.853515625	0.2	FACES	1	0.483347655626858	0	0	4618.0	1
850.294921875	0.2	FACES	1	0.410111991577651	0	0	4626.0	1
