COND	DIREC	ACC	RT	nameCOND	nameDIREC	outliers	bad_trials
1	0	1	0.790368305303218	COHERENT	RIGHT	0	0
0	0	1	0.947707758444267	RANDOM	NONE	0	0
0	0	1	0.844539230500231	RANDOM	NONE	0	0
1	0	1	0.709169569913229	COHERENT	RIGHT	0	0
1	0	1	0.873151727248114	COHERENT	RIGHT	0	0
1	0	1	0.918794624018574	COHERENT	RIGHT	0	0
0	0	1	0.93473506153714	RANDOM	NONE	0	0
1	0	1	0.859404495921808	COHERENT	RIGHT	0	0
0	0	1	0.80420578830126	RANDOM	NONE	0	0
1	0	1	0.827644660753322	COHERENT	RIGHT	0	0
1	0	1	0.79479244831964	COHERENT	RIGHT	0	0
1	0	1	1.01253894555839	COHERENT	RIGHT	0	0
0	0	1	0.873416445364001	RANDOM	NONE	0	0
0	0	1	0.959203225636884	RANDOM	NONE	0	0
0	0	1	0.914047808635132	RANDOM	NONE	0	0
1	0	1	0.804790764024347	COHERENT	RIGHT	0	0
0	0	1	0.797661787441939	RANDOM	NONE	0	0
1	180	1	0.899396551359587	COHERENT	LEFT	0	0
1	0	1	1.07817847373872	COHERENT	RIGHT	0	0
1	180	1	0.894881552981133	COHERENT	LEFT	0	0
0	0	1	0.957763726554731	RANDOM	NONE	0	0
0	0	1	0.94728849565854	RANDOM	NONE	0	0
1	180	1	0.743396686586493	COHERENT	LEFT	0	0
1	0	1	0.919068699331092	COHERENT	RIGHT	0	0
0	0	1	0.788934541277285	RANDOM	NONE	0	0
0	0	1	0.784876536316006	RANDOM	NONE	0	0
0	0	1	0.86760562615018	RANDOM	NONE	0	0
0	0	1	0.694400894910359	RANDOM	NONE	0	0
0	0	1	0.71307665234508	RANDOM	NONE	0	0
0	0	1	0.792832870202346	RANDOM	NONE	0	0
1	180	1	0.844901746414962	COHERENT	LEFT	0	0
0	0	1	0.63952999102321	RANDOM	NONE	0	0
1	0	1	0.723305577673727	COHERENT	RIGHT	0	0
1	0	1	0.659229606895224	COHERENT	RIGHT	0	0
0	0	1	0.623888380112476	RANDOM	NONE	0	0
0	0	1	0.704884275623044	RANDOM	NONE	0	0
0	0	1	0.758552930643873	RANDOM	NONE	0	0
1	180	1	0.789281361248413	COHERENT	LEFT	0	0
1	180	0	NaN	COHERENT	LEFT	1	0
1	0	1	0.89313024795365	COHERENT	RIGHT	0	0
1	180	1	0.859051940894005	COHERENT	LEFT	0	0
0	0	1	0.68754388072557	RANDOM	NONE	0	0
0	0	1	0.834461227700103	RANDOM	NONE	0	0
1	0	1	0.878425262258133	COHERENT	RIGHT	0	0
0	0	1	0.884046220930031	RANDOM	NONE	0	0
0	0	1	0.824637982129389	RANDOM	NONE	0	1
0	0	1	0.844707660042786	RANDOM	NONE	0	1
0	0	1	0.819475526100632	RANDOM	NONE	0	1
0	0	1	0.769377396272375	RANDOM	NONE	0	0
1	0	1	0.93305891592945	COHERENT	RIGHT	0	0
1	180	1	0.714914285058967	COHERENT	LEFT	0	0
1	0	1	0.664594902802946	COHERENT	RIGHT	0	0
1	0	1	0.879393883049488	COHERENT	RIGHT	0	0
0	0	1	0.729845956393092	RANDOM	NONE	0	0
0	0	1	0.733033138361407	RANDOM	NONE	0	0
1	0	1	0.664774198767191	COHERENT	RIGHT	0	0
0	0	1	0.79367169761872	RANDOM	NONE	0	0
0	0	1	0.849473189820401	RANDOM	NONE	0	1
1	0	1	0.784259263172316	COHERENT	RIGHT	0	0
1	180	1	0.694129234357661	COHERENT	LEFT	0	0
1	180	1	0.857713258061267	COHERENT	LEFT	0	1
1	180	1	0.908752842625745	COHERENT	LEFT	0	1
1	180	1	1.13838086688702	COHERENT	LEFT	0	0
0	0	1	0.898404084809044	RANDOM	NONE	0	1
0	0	1	0.854118887109507	RANDOM	NONE	0	0
0	0	1	0.724707647969353	RANDOM	NONE	0	0
1	0	1	0.838692491724487	COHERENT	RIGHT	0	0
0	0	0	NaN	RANDOM	NONE	1	0
0	0	0	NaN	RANDOM	NONE	1	0
1	0	1	1.05401004178157	COHERENT	RIGHT	0	0
0	0	1	0.904909751346167	RANDOM	NONE	0	0
1	180	1	1.12337494166832	COHERENT	LEFT	0	0
0	0	1	0.953897393205807	RANDOM	NONE	0	0
0	0	0	NaN	RANDOM	NONE	1	0
0	0	0	NaN	RANDOM	NONE	1	0
1	0	0	NaN	COHERENT	RIGHT	1	0
0	0	1	0.998301517857726	RANDOM	NONE	0	0
0	0	1	1.05862887486046	RANDOM	NONE	0	0
0	0	1	0.894479797208078	RANDOM	NONE	0	0
0	0	1	0.869673566643542	RANDOM	NONE	0	0
1	180	1	0.864445912081919	COHERENT	LEFT	0	0
1	180	1	1.04310045584634	COHERENT	LEFT	0	0
0	0	1	0.943999290060674	RANDOM	NONE	0	0
1	180	1	0.80494440315897	COHERENT	LEFT	0	0
0	0	1	0.978708453291347	RANDOM	NONE	0	0
1	180	0	NaN	COHERENT	LEFT	1	0
0	0	1	1.07325658822128	RANDOM	NONE	0	0
1	180	1	0.802767194754324	COHERENT	LEFT	0	0
1	180	1	0.972910009725638	COHERENT	LEFT	0	0
0	0	1	1.04471562875233	RANDOM	NONE	0	0
0	0	1	1.0331133084087	RANDOM	NONE	0	0
0	0	1	0.929118328695949	RANDOM	NONE	0	0
1	180	1	0.769903814053578	COHERENT	LEFT	0	0
1	180	0	NaN	COHERENT	LEFT	1	0
0	0	1	0.89834794162789	RANDOM	NONE	0	0
1	0	1	0.968256464464503	COHERENT	RIGHT	0	0
0	0	1	0.913009461635284	RANDOM	NONE	0	0
0	0	1	1.16481887183591	RANDOM	NONE	0	0
1	0	1	0.824701369591821	COHERENT	RIGHT	0	0
0	0	1	1.00844079520493	RANDOM	NONE	0	0
1	180	1	0.889123254807146	COHERENT	LEFT	0	0
1	180	1	0.689000886820395	COHERENT	LEFT	0	0
0	0	1	0.858687312063466	RANDOM	NONE	0	0
1	180	1	0.9636409516811	COHERENT	LEFT	0	1
0	0	1	0.898454794778445	RANDOM	NONE	0	0
0	0	1	0.944166814067557	RANDOM	NONE	0	0
1	0	1	0.902997562903238	COHERENT	RIGHT	0	0
1	0	1	0.927913061379058	COHERENT	RIGHT	0	0
0	0	1	0.78460940343939	RANDOM	NONE	0	1
1	180	1	0.844343936747464	COHERENT	LEFT	0	0
1	0	1	0.845154692573942	COHERENT	RIGHT	0	0
0	0	1	1.18755142685177	RANDOM	NONE	0	1
0	0	1	1.06344632198761	RANDOM	NONE	0	1
1	0	1	0.919491584257685	COHERENT	RIGHT	0	0
0	0	1	0.814220101794035	RANDOM	NONE	0	0
1	180	1	0.829104685299171	COHERENT	LEFT	0	0
0	0	1	0.784757911207635	RANDOM	NONE	0	0
0	0	1	1.09968614150876	RANDOM	NONE	0	1
1	0	1	0.97430423204878	COHERENT	RIGHT	0	0
1	180	1	0.744074932431886	COHERENT	LEFT	0	0
0	0	1	0.877995736740104	RANDOM	NONE	0	0
0	0	1	0.917852263747136	RANDOM	NONE	0	0
1	180	1	0.769683769006406	COHERENT	LEFT	0	0
0	0	1	0.988386813234683	RANDOM	NONE	0	0
1	0	1	1.00791437742373	COHERENT	RIGHT	0	0
1	180	1	0.939821754456261	COHERENT	LEFT	0	0
0	0	1	0.784798056600721	RANDOM	NONE	0	0
1	180	1	0.648391860084303	COHERENT	LEFT	0	0
1	0	1	0.783245667466872	COHERENT	RIGHT	0	0
1	180	1	0.799071403863309	COHERENT	LEFT	0	0
1	0	1	0.714798074711325	COHERENT	RIGHT	0	0
1	180	1	0.872847467429438	COHERENT	LEFT	0	0
1	0	1	0.918638268278755	COHERENT	RIGHT	0	0
1	180	1	0.958335421094944	COHERENT	LEFT	0	0
0	0	1	0.74413077376812	RANDOM	NONE	0	0
1	180	1	0.759831244464749	COHERENT	LEFT	0	0
0	0	1	0.883745281406846	RANDOM	NONE	0	0
1	180	1	0.654464982652826	COHERENT	LEFT	0	0
1	0	1	0.714381830376169	COHERENT	RIGHT	0	0
1	180	1	0.668898005951178	COHERENT	LEFT	0	0
1	180	1	0.704941626184336	COHERENT	LEFT	0	0
0	0	1	0.714511321906684	RANDOM	NONE	0	0
0	0	1	0.779497355535568	RANDOM	NONE	0	0
1	0	1	0.613215742548164	COHERENT	RIGHT	0	0
0	0	1	0.683306579800046	RANDOM	NONE	0	0
0	0	1	0.838838282887991	RANDOM	NONE	0	0
1	0	1	0.702723065007376	COHERENT	RIGHT	0	0
0	0	1	0.994641646528635	RANDOM	NONE	0	0
0	0	1	0.78844313752279	RANDOM	NONE	0	0
1	0	1	0.764244521059481	COHERENT	RIGHT	0	0
0	0	1	0.599828310530938	RANDOM	NONE	0	1
0	0	1	0.574349569176775	RANDOM	NONE	0	0
0	0	1	0.618985208988306	RANDOM	NONE	0	0
1	180	1	0.63001281634115	COHERENT	LEFT	0	0
1	0	1	0.614868042395756	COHERENT	RIGHT	0	0
1	0	1	0.793719389138005	COHERENT	RIGHT	0	0
1	0	1	0.574431972877392	COHERENT	RIGHT	0	0
1	180	1	0.713407172683674	COHERENT	LEFT	0	0
1	180	1	0.794115108009009	COHERENT	LEFT	0	1
1	180	1	0.847912952714523	COHERENT	LEFT	0	1
0	0	1	0.654685631390748	RANDOM	NONE	0	0
0	0	1	0.929228803987371	RANDOM	NONE	0	1
1	0	1	0.778374190073919	COHERENT	RIGHT	0	0
0	0	1	0.848026446456515	RANDOM	NONE	0	0
0	0	1	0.922895490978135	RANDOM	NONE	0	0
1	0	1	0.769542203674064	COHERENT	RIGHT	0	0
0	0	1	1.02847334617582	RANDOM	NONE	0	0
0	0	1	1.13798333694513	RANDOM	NONE	0	0
0	0	1	1.03471550197764	RANDOM	NONE	0	0
1	0	1	0.943746645747069	COHERENT	RIGHT	0	0
0	0	1	0.729444502465867	RANDOM	NONE	0	0
1	180	1	0.858489301705504	COHERENT	LEFT	0	0
0	0	0	NaN	RANDOM	NONE	1	0
1	180	1	0.780129419087189	COHERENT	LEFT	0	0
0	0	1	1.04382820428145	RANDOM	NONE	0	0
1	180	1	0.634596937238712	COHERENT	LEFT	0	0
0	0	1	0.699413937634745	RANDOM	NONE	0	0
0	0	1	0.863764345941036	RANDOM	NONE	0	0
0	0	1	0.93996422532382	RANDOM	NONE	0	0
0	0	0	NaN	RANDOM	NONE	1	0
0	0	0	NaN	RANDOM	NONE	1	0
0	0	0	NaN	RANDOM	NONE	1	0
1	0	1	0.558860390020072	COHERENT	RIGHT	0	0
0	0	1	0.677866728162826	RANDOM	NONE	0	0
1	180	1	0.687752153815381	COHERENT	LEFT	0	0
1	180	1	0.763575934256096	COHERENT	LEFT	0	1
1	180	1	0.693402995148517	COHERENT	LEFT	0	0
0	0	1	0.854129753531197	RANDOM	NONE	0	0
1	0	1	0.657988118171033	COHERENT	RIGHT	0	0
1	0	1	0.779846892112801	COHERENT	RIGHT	0	0
0	0	1	0.802216327523638	RANDOM	NONE	0	0
1	0	1	1.01896975452155	COHERENT	RIGHT	0	0
1	180	1	0.754963691058038	COHERENT	LEFT	0	0
1	180	1	0.877972796515678	COHERENT	LEFT	0	0
1	180	1	0.674847975736611	COHERENT	LEFT	0	0
0	0	1	0.718651126878285	RANDOM	NONE	0	0
0	0	1	1.16918958827728	RANDOM	NONE	0	0
1	0	1	0.984926159643692	COHERENT	RIGHT	0	0
0	0	1	0.844908085161478	RANDOM	NONE	0	0
0	0	1	0.83486087055735	RANDOM	NONE	0	0
1	180	1	0.808467236831802	COHERENT	LEFT	0	0
0	0	1	0.958200194509118	RANDOM	NONE	0	0
1	180	1	1.11785389371062	COHERENT	LEFT	0	0
0	0	1	0.799944339771173	RANDOM	NONE	0	1
0	0	1	0.820696791205592	RANDOM	NONE	0	0
0	0	1	0.854505852474176	RANDOM	NONE	0	0
0	0	1	0.754339173632616	RANDOM	NONE	0	0
1	0	1	0.644107169483959	COHERENT	RIGHT	0	0
0	0	1	0.774879729836357	RANDOM	NONE	0	0
0	0	1	1.12346126935518	RANDOM	NONE	0	0
0	0	0	NaN	RANDOM	NONE	1	0
1	0	1	0.674951508591221	COHERENT	RIGHT	0	0
0	0	1	0.875037051480831	RANDOM	NONE	0	0
1	180	1	0.6647654452604	COHERENT	LEFT	0	0
1	0	1	0.564634685981673	COHERENT	RIGHT	0	0
1	0	1	0.829448486820638	COHERENT	RIGHT	0	0
0	0	1	0.67807409571742	RANDOM	NONE	0	0
1	180	1	0.765032638506	COHERENT	LEFT	0	0
0	0	1	0.597970756043651	RANDOM	NONE	0	0
0	0	1	1.12267586851431	RANDOM	NONE	0	0
1	180	1	0.643437375299982	COHERENT	LEFT	0	0
1	180	0	NaN	COHERENT	LEFT	1	0
0	0	1	0.699098811394379	RANDOM	NONE	0	0
1	0	1	0.638026802633703	COHERENT	RIGHT	0	0
0	0	1	0.619663152988778	RANDOM	NONE	0	0
1	0	0	NaN	COHERENT	RIGHT	1	0
1	180	1	0.868357220344933	COHERENT	LEFT	0	0
0	0	1	0.773284176859761	RANDOM	NONE	0	0
0	0	1	0.59989954596449	RANDOM	NONE	0	0
1	180	1	0.664777820908057	COHERENT	LEFT	0	0
1	180	1	0.704338237912907	COHERENT	LEFT	0	0
1	0	1	0.709396859241679	COHERENT	RIGHT	0	0
0	0	1	0.804032529238611	RANDOM	NONE	0	0
0	0	1	0.80792361388194	RANDOM	NONE	0	0
0	0	1	0.828807066072386	RANDOM	NONE	0	0
0	0	1	0.859636916616637	RANDOM	NONE	0	0
1	0	1	0.989391353587962	COHERENT	RIGHT	0	0
1	0	1	0.83809604588987	COHERENT	RIGHT	0	0
1	180	1	0.859821947637101	COHERENT	LEFT	0	0
1	0	1	0.789705151710223	COHERENT	RIGHT	0	0
1	180	1	0.688335620312955	COHERENT	LEFT	0	0
1	180	1	0.629368980832623	COHERENT	LEFT	0	0
0	0	1	0.614120674032165	RANDOM	NONE	0	0
0	0	1	0.772904153930995	RANDOM	NONE	0	0
1	180	1	0.769687692992193	COHERENT	LEFT	0	0
1	0	1	0.694382784206937	COHERENT	RIGHT	0	0
1	180	1	0.854378172014094	COHERENT	LEFT	0	0
1	0	1	0.709172286518424	COHERENT	RIGHT	0	0
0	0	1	0.704685963420161	RANDOM	NONE	0	0
0	0	1	0.719828624449747	RANDOM	NONE	0	0
1	0	1	0.977495941693178	COHERENT	RIGHT	0	0
1	0	1	0.749381972243555	COHERENT	RIGHT	0	0
1	0	0	NaN	COHERENT	RIGHT	1	0
1	0	1	0.909665018391479	COHERENT	RIGHT	0	0
1	180	1	0.91376015029482	COHERENT	LEFT	0	0
0	0	1	0.674489987497964	RANDOM	NONE	0	0
0	0	1	0.673385234584657	RANDOM	NONE	0	0
0	0	1	0.813197148892414	RANDOM	NONE	0	0
1	180	1	0.69395476791442	COHERENT	LEFT	0	0
0	0	1	0.72280723148333	RANDOM	NONE	0	0
0	0	1	0.812537919285205	RANDOM	NONE	0	0
1	0	1	0.698441996547899	COHERENT	RIGHT	0	0
1	180	1	0.71860313351408	COHERENT	LEFT	0	0
1	0	1	0.794124767051017	COHERENT	RIGHT	0	0
0	0	1	0.584942821490586	RANDOM	NONE	0	0
1	0	1	1.05364933693727	COHERENT	RIGHT	0	0
1	180	1	0.659419769282067	COHERENT	LEFT	0	0
0	0	1	0.624448604540248	RANDOM	NONE	0	0
0	0	1	0.718022987311997	RANDOM	NONE	0	0
0	0	1	0.699960880880099	RANDOM	NONE	0	0
1	0	1	0.664852376637555	COHERENT	RIGHT	0	0
0	0	1	0.674375286375835	RANDOM	NONE	0	0
0	0	0	NaN	RANDOM	NONE	1	0
1	180	1	0.624050470908514	COHERENT	LEFT	0	0
0	0	1	0.645134348217198	RANDOM	NONE	0	0
1	0	1	0.789827700803926	COHERENT	RIGHT	0	0
0	0	1	0.822688364899022	RANDOM	NONE	0	0
0	0	1	0.87935585057221	RANDOM	NONE	0	0
1	0	1	0.633281194630399	COHERENT	RIGHT	0	0
0	0	1	0.499074543051847	RANDOM	NONE	0	0
1	180	1	0.440086170727227	COHERENT	LEFT	0	0
0	0	1	0.54967283014139	RANDOM	NONE	0	0
0	0	1	0.569657689593441	RANDOM	NONE	0	0
0	0	1	0.48928661335276	RANDOM	NONE	0	0
0	0	1	0.489014952800517	RANDOM	NONE	0	0
1	0	1	0.610184916319213	COHERENT	RIGHT	0	0
0	0	1	0.54997648626977	RANDOM	NONE	0	0
1	0	1	0.514501843971175	COHERENT	RIGHT	0	0
0	0	1	0.53859692757942	RANDOM	NONE	0	0
0	0	1	0.54835889860351	RANDOM	NONE	0	0
1	180	1	0.750174013676315	COHERENT	LEFT	0	0
1	180	0	NaN	COHERENT	LEFT	1	0
1	180	0	NaN	COHERENT	LEFT	1	0
1	180	0	NaN	COHERENT	LEFT	1	0
1	0	1	0.734429775445278	COHERENT	RIGHT	0	0
0	0	1	0.714100812627294	RANDOM	NONE	0	0
0	0	0	NaN	RANDOM	NONE	1	0
1	0	1	0.853735845730625	COHERENT	RIGHT	0	0
0	0	1	0.844593260765578	RANDOM	NONE	0	0
1	0	1	0.848080778567237	COHERENT	RIGHT	0	0
1	180	1	0.929633578210542	COHERENT	LEFT	0	0
0	0	1	0.957411171526928	RANDOM	NONE	0	0
1	180	1	0.709610565542789	COHERENT	LEFT	0	0
1	0	1	0.638334684592792	COHERENT	RIGHT	0	0
0	0	1	0.768272341515058	RANDOM	NONE	0	0
1	180	1	0.689073027789618	COHERENT	LEFT	0	0
1	0	1	0.769998291556931	COHERENT	RIGHT	0	0
1	0	1	0.802646758576429	COHERENT	RIGHT	0	0
0	0	1	0.834394519942634	RANDOM	NONE	0	0
0	0	1	0.978048016304456	RANDOM	NONE	0	0
0	0	1	0.858926373349732	RANDOM	NONE	0	0
1	0	1	0.700830798337847	COHERENT	RIGHT	0	0
0	0	1	0.724646977112116	RANDOM	NONE	0	0
1	180	1	0.658365424493695	COHERENT	LEFT	0	0
0	0	1	0.822950064564338	RANDOM	NONE	0	0
0	0	1	0.690122543056987	RANDOM	NONE	0	0
1	0	1	0.637868333978076	COHERENT	RIGHT	0	0
1	180	1	0.549828280346446	COHERENT	LEFT	0	0
1	180	1	0.658354558072006	COHERENT	LEFT	0	0
0	0	1	0.552468217224487	RANDOM	NONE	0	0
0	0	1	0.644163916354955	RANDOM	NONE	0	0
1	0	1	0.658093462096531	COHERENT	RIGHT	0	0
0	0	1	0.727883359825228	RANDOM	NONE	0	0
0	0	1	0.759660702007295	RANDOM	NONE	0	0
1	180	1	0.499616656776197	COHERENT	LEFT	0	0
1	0	1	0.539363010337183	COHERENT	RIGHT	0	0
0	0	1	0.797931938769125	RANDOM	NONE	0	1
1	0	1	0.672911941533584	COHERENT	RIGHT	0	0
1	0	1	0.554877242633211	COHERENT	RIGHT	0	0
1	0	1	0.533571509206922	COHERENT	RIGHT	0	0
1	180	1	0.513487040886048	COHERENT	LEFT	0	0
1	180	1	0.599343245522959	COHERENT	LEFT	0	0
1	0	1	0.659069629014539	COHERENT	RIGHT	0	0
0	0	1	0.798024001511749	RANDOM	NONE	0	0
1	180	1	0.759717448877836	COHERENT	LEFT	0	0
0	0	1	0.699554899277246	RANDOM	NONE	0	0
0	0	1	0.87937788526142	RANDOM	NONE	0	0
0	0	1	0.844090990588938	RANDOM	NONE	0	0
1	0	1	0.718061925324946	COHERENT	RIGHT	0	0
0	0	1	0.782825800991304	RANDOM	NONE	0	0
0	0	1	0.718571741627784	RANDOM	NONE	0	0
1	180	1	0.614149047467436	COHERENT	LEFT	0	0
1	180	1	0.643006038711974	COHERENT	LEFT	0	0
1	0	1	0.663945634082665	COHERENT	RIGHT	0	0
1	180	1	0.584545895238989	COHERENT	LEFT	0	0
0	0	1	0.578627015494931	RANDOM	NONE	0	0
1	0	1	0.949504642075226	COHERENT	RIGHT	0	0
0	0	1	0.693298858602702	RANDOM	NONE	0	0
0	0	1	0.839032671105542	RANDOM	NONE	0	0
1	180	1	0.709860191405824	COHERENT	LEFT	0	0
0	0	1	0.804767521955	RANDOM	NONE	0	0
1	180	1	0.588530853696284	COHERENT	LEFT	0	0
1	0	1	0.643167223973251	COHERENT	RIGHT	0	0
0	0	1	0.528991312295602	RANDOM	NONE	0	0
0	0	1	0.640293960865165	RANDOM	NONE	0	0
1	0	1	0.634799475272303	COHERENT	RIGHT	0	0
1	0	1	0.963620426216949	COHERENT	RIGHT	0	0
0	0	1	0.844230443005927	RANDOM	NONE	0	0
0	0	1	0.693121977399187	RANDOM	NONE	0	0
1	180	1	0.594071521582919	COHERENT	LEFT	0	0
1	0	1	0.597856658611818	COHERENT	RIGHT	0	0
1	180	1	0.457733240204107	COHERENT	LEFT	0	0
1	0	1	0.504440744494786	COHERENT	RIGHT	0	0
1	0	1	0.568330778718064	COHERENT	RIGHT	0	0
0	0	0	NaN	RANDOM	NONE	1	0
1	180	1	0.529536444470523	COHERENT	LEFT	0	0
1	0	1	0.563714360399445	COHERENT	RIGHT	0	0
0	0	1	0.559234979737084	RANDOM	NONE	0	0
1	0	1	0.553924015940083	COHERENT	RIGHT	0	0
0	0	1	0.523135216323226	RANDOM	NONE	0	0
0	0	1	0.534010090076663	RANDOM	NONE	0	0
0	0	1	0.465030344483694	RANDOM	NONE	0	0
1	0	1	0.582788855156195	COHERENT	RIGHT	0	0
0	0	1	0.579562131485091	RANDOM	NONE	0	0
1	180	1	0.559423029208119	COHERENT	LEFT	0	0
1	180	1	0.498153613779778	COHERENT	LEFT	0	0
1	0	1	0.624123819257875	COHERENT	RIGHT	0	0
1	180	1	0.535239203153196	COHERENT	LEFT	0	0
0	0	1	0.608817860051204	RANDOM	NONE	0	0
0	0	1	0.584600529194631	RANDOM	NONE	0	0
1	180	1	0.544234185884306	COHERENT	LEFT	0	0
0	0	1	0.574008786106333	RANDOM	NONE	0	0
0	0	1	0.53391561257331	RANDOM	NONE	0	0
0	0	1	0.589520301796711	RANDOM	NONE	0	0
1	180	1	0.493817005829897	COHERENT	LEFT	0	0
1	0	1	0.454471502506294	COHERENT	RIGHT	0	0
1	0	1	0.524290075515637	COHERENT	RIGHT	0	0
0	0	1	0.434280482879785	RANDOM	NONE	0	0
1	180	1	0.473937188458422	COHERENT	LEFT	0	0
0	0	1	0.628059275124997	RANDOM	NONE	0	0
1	180	1	0.402724091280106	COHERENT	LEFT	0	0
0	0	1	0.488710692982295	RANDOM	NONE	0	0
1	0	1	0.483594117401935	COHERENT	RIGHT	0	0
0	0	1	0.458338137700594	RANDOM	NONE	0	0
0	0	1	0.533187864138199	RANDOM	NONE	0	0
0	0	1	0.473104397942734	RANDOM	NONE	0	0
0	0	1	0.469898199735326	RANDOM	NONE	0	0
0	0	1	0.474677916230576	RANDOM	NONE	0	0
1	0	1	0.694597094197889	COHERENT	RIGHT	0	0
1	180	1	0.618891938865545	COHERENT	LEFT	0	0
1	180	0	NaN	COHERENT	LEFT	1	0
1	0	1	0.639021080255134	COHERENT	RIGHT	0	0
0	0	1	0.460497235400908	RANDOM	NONE	0	0
0	0	1	0.56871321640665	RANDOM	NONE	0	0
0	0	1	0.503568110431843	RANDOM	NONE	0	0
1	180	1	0.604341497839869	COHERENT	LEFT	0	0
0	0	1	0.73807878035268	RANDOM	NONE	0	0
0	0	1	0.528055894460522	RANDOM	NONE	0	0
0	0	0	NaN	RANDOM	NONE	1	1
1	0	1	0.538496715019846	COHERENT	RIGHT	0	0
0	0	1	0.499464526866632	RANDOM	NONE	0	0
1	0	1	0.458204420339825	COHERENT	RIGHT	0	0
0	0	1	0.442966678117045	RANDOM	NONE	0	0
1	180	1	0.589897608119372	COHERENT	LEFT	0	0
0	0	1	0.499809233923315	RANDOM	NONE	0	0
0	0	1	0.538230487678902	RANDOM	NONE	0	0
0	0	1	0.464496682421213	RANDOM	NONE	0	0
1	180	1	0.449323836885014	COHERENT	LEFT	0	0
0	0	1	0.508068016558354	RANDOM	NONE	0	0
0	0	1	0.408934251505798	RANDOM	NONE	0	0
1	0	1	0.517837835553564	COHERENT	RIGHT	0	0
0	0	1	0.49873043968546	RANDOM	NONE	0	0
0	0	1	0.444472583111747	RANDOM	NONE	0	0
0	0	1	0.454310015400097	RANDOM	NONE	0	0
1	180	1	0.459311286168031	COHERENT	LEFT	0	0
1	180	0	NaN	COHERENT	LEFT	1	0
1	180	0	NaN	COHERENT	LEFT	1	0
0	0	1	0.524808343480345	RANDOM	NONE	0	0
1	180	1	0.454612765993261	COHERENT	LEFT	0	0
0	0	1	0.589288786637098	RANDOM	NONE	0	0
1	0	1	0.468140555962236	COHERENT	RIGHT	0	0
0	0	1	0.549187463288035	RANDOM	NONE	0	0
0	0	1	0.567997843619196	RANDOM	NONE	0	0
0	0	1	0.687766340533017	RANDOM	NONE	0	0
0	0	1	0.608483113881903	RANDOM	NONE	0	0
1	180	1	0.389400046725768	COHERENT	LEFT	0	0
1	0	1	0.613925983969693	COHERENT	RIGHT	0	0
1	0	1	0.493043376945934	COHERENT	RIGHT	0	0
1	0	1	0.524561132378039	COHERENT	RIGHT	0	0
0	0	1	0.459730247108382	RANDOM	NONE	0	0
1	180	1	0.608471945614838	COHERENT	LEFT	0	0
0	0	1	0.529289233367763	RANDOM	NONE	0	0
1	0	1	0.96423347352993	COHERENT	RIGHT	0	0
0	0	1	0.622802341593342	RANDOM	NONE	0	0
0	0	1	0.650053215283606	RANDOM	NONE	0	0
1	180	1	0.534637927797576	COHERENT	LEFT	0	0
0	0	1	0.523576211953241	RANDOM	NONE	0	0
1	180	1	0.563363012751779	COHERENT	LEFT	0	0
0	0	1	0.549295523819183	RANDOM	NONE	0	0
0	0	1	0.57801698663252	RANDOM	NONE	0	0
0	0	1	0.608266690975142	RANDOM	NONE	0	1
1	180	1	0.469217237284738	COHERENT	LEFT	0	0
0	0	1	0.439652117534024	RANDOM	NONE	0	0
0	0	1	0.492831481714802	RANDOM	NONE	0	0
1	0	1	0.582991695035162	COHERENT	RIGHT	0	0
1	180	1	0.547774526571175	COHERENT	LEFT	0	0
0	0	1	0.464584217487754	RANDOM	NONE	0	0
0	0	1	0.648457058616259	RANDOM	NONE	0	0
0	0	1	0.588318958465607	RANDOM	NONE	0	0
1	0	1	0.55301485862492	COHERENT	RIGHT	0	0
1	0	1	0.658005021494318	COHERENT	RIGHT	0	0
0	0	1	0.48979461858562	RANDOM	NONE	0	0
1	180	1	0.618319338790116	COHERENT	LEFT	0	0
0	0	1	0.589504605853563	RANDOM	NONE	0	0
1	0	1	0.588390495744079	COHERENT	RIGHT	0	0
0	0	1	0.639046435240289	RANDOM	NONE	0	0
0	0	1	0.787708144805947	RANDOM	NONE	0	0
1	0	1	0.553987101556686	COHERENT	RIGHT	0	0
1	0	1	0.679568530600136	COHERENT	RIGHT	0	0
0	0	1	0.503523437363128	RANDOM	NONE	0	0
0	0	1	0.660601492684236	RANDOM	NONE	0	0
1	0	1	0.543134262492913	COHERENT	RIGHT	0	0
0	0	1	0.607868859188784	RANDOM	NONE	0	1
1	0	1	0.67476859048611	COHERENT	RIGHT	0	0
1	180	1	0.728549230023418	COHERENT	LEFT	0	0
1	180	1	0.708309613342408	COHERENT	LEFT	0	0
0	0	1	0.559108204812674	RANDOM	NONE	0	0
1	180	1	0.577834974062625	COHERENT	LEFT	0	0
1	0	1	0.554893240421734	COHERENT	RIGHT	0	0
1	180	1	0.560699230113642	COHERENT	LEFT	0	0
1	0	1	0.60858000614553	COHERENT	RIGHT	0	0
1	180	1	0.493034321594223	COHERENT	LEFT	0	0
1	0	1	0.614230545632836	COHERENT	RIGHT	0	0
0	0	1	0.535046927850999	RANDOM	NONE	0	0
1	0	1	0.622404207961608	COHERENT	RIGHT	0	0
0	0	1	0.564736105921384	RANDOM	NONE	0	0
0	0	1	0.479543054877468	RANDOM	NONE	0	0
1	0	1	0.568956201678702	COHERENT	RIGHT	0	0
1	180	1	0.429217635719851	COHERENT	LEFT	0	0
1	180	1	0.505031455273638	COHERENT	LEFT	0	0
1	180	1	0.449826408907029	COHERENT	LEFT	0	0
0	0	1	0.510188176246174	RANDOM	NONE	0	0
0	0	1	0.668581068640378	RANDOM	NONE	0	0
1	0	1	0.464279957669078	COHERENT	RIGHT	0	0
1	0	1	0.508839532526508	COHERENT	RIGHT	0	0
1	0	1	0.626989234394387	COHERENT	RIGHT	0	0
0	0	1	0.484814175126758	RANDOM	NONE	0	0
1	180	1	0.464756269170721	COHERENT	LEFT	0	0
1	180	1	0.431977103241024	COHERENT	LEFT	0	0
0	0	1	0.448414075880464	RANDOM	NONE	0	0
1	0	1	0.429255668197129	COHERENT	RIGHT	0	0
0	0	1	0.47905014189746	RANDOM	NONE	0	0
0	0	1	0.604942169505193	RANDOM	NONE	0	0
0	0	1	0.60776260972807	RANDOM	NONE	0	0
0	0	1	0.534554014871446	RANDOM	NONE	0	0
0	0	1	0.454006962961557	RANDOM	NONE	0	0
0	0	1	0.424335291905663	RANDOM	NONE	0	0
0	0	1	0.544837272310815	RANDOM	NONE	0	0
1	180	1	0.494817018507547	COHERENT	LEFT	0	0
0	0	1	0.627674724521057	RANDOM	NONE	0	0
1	180	0	NaN	COHERENT	LEFT	1	0
0	0	1	0.499330809505864	RANDOM	NONE	0	0
0	0	1	0.448223309803325	RANDOM	NONE	0	0
0	0	1	0.493870130560026	RANDOM	NONE	0	0
1	0	1	0.549869331274294	COHERENT	RIGHT	0	0
1	0	1	0.599762508308231	COHERENT	RIGHT	0	0
0	0	1	0.439684414955082	RANDOM	NONE	0	0
0	0	1	0.489297781619825	RANDOM	NONE	0	0
0	0	1	0.648150987727604	RANDOM	NONE	0	0
0	0	1	0.514040322877918	RANDOM	NONE	0	0
0	0	1	0.514991436655691	RANDOM	NONE	0	0
1	180	1	0.494521210350285	COHERENT	LEFT	0	0
0	0	1	0.633425476567936	RANDOM	NONE	0	0
1	0	1	0.588409210137797	COHERENT	RIGHT	0	0
0	0	1	0.549271074369244	RANDOM	NONE	0	0
1	180	1	0.48803697481253	COHERENT	LEFT	0	0
0	0	1	0.62298073202237	RANDOM	NONE	0	0
1	180	1	0.460611030988275	COHERENT	LEFT	0	0
0	0	1	0.514971514881836	RANDOM	NONE	0	0
0	0	0	NaN	RANDOM	NONE	1	0
1	180	1	0.434044741889011	COHERENT	LEFT	0	0
0	0	1	0.528959316719465	RANDOM	NONE	0	0
0	0	1	0.687834859361374	RANDOM	NONE	0	0
0	0	1	0.644687315686042	RANDOM	NONE	0	0
1	180	1	0.648553045345125	COHERENT	LEFT	0	0
1	0	1	0.713172337228571	COHERENT	RIGHT	0	0
0	0	1	0.703259745520427	RANDOM	NONE	0	0
1	0	1	0.728055411508194	COHERENT	RIGHT	0	0
1	180	1	0.454892576361999	COHERENT	LEFT	0	0
1	180	1	0.489463796402106	COHERENT	LEFT	0	0
0	0	1	0.625116889498713	RANDOM	NONE	0	0
0	0	1	0.768320938569104	RANDOM	NONE	0	0
1	0	1	0.63403429805021	COHERENT	RIGHT	0	0
1	180	1	0.774992016198212	COHERENT	LEFT	0	0
1	0	1	0.767804179829909	COHERENT	RIGHT	0	0
1	180	1	0.664761521274613	COHERENT	LEFT	0	0
0	0	1	0.924273413668288	RANDOM	NONE	0	0
0	0	1	0.979099644487178	RANDOM	NONE	0	0
1	0	1	0.829994524530775	COHERENT	RIGHT	0	0
0	0	1	0.779395030060641	RANDOM	NONE	0	0
1	0	1	0.868497578297138	COHERENT	RIGHT	0	0
1	180	1	0.66927289751311	COHERENT	LEFT	0	0
0	0	0	NaN	RANDOM	NONE	1	1
0	0	1	0.824936205046924	RANDOM	NONE	0	0
0	0	1	0.784687883154675	RANDOM	NONE	0	0
1	180	1	0.659472290321446	COHERENT	LEFT	0	0
1	180	1	0.714255357297134	COHERENT	LEFT	0	0
0	0	1	0.747970846596672	RANDOM	NONE	0	0
1	180	1	0.760037706484582	COHERENT	LEFT	0	0
1	0	1	0.644761569570164	COHERENT	RIGHT	0	0
0	0	1	0.659395017986753	RANDOM	NONE	0	0
0	0	1	0.708180423657723	RANDOM	NONE	0	0
0	0	1	0.853916952765758	RANDOM	NONE	0	0
0	0	1	0.814965055397806	RANDOM	NONE	0	0
0	0	1	0.857780569509032	RANDOM	NONE	0	0
0	0	1	0.913525314839717	RANDOM	NONE	0	0
0	0	1	0.809350133627049	RANDOM	NONE	0	0
1	180	1	0.704179165567439	COHERENT	LEFT	0	0
1	0	1	0.592913945784858	COHERENT	RIGHT	0	0
1	0	1	0.663768752878696	COHERENT	RIGHT	0	0
1	180	1	0.599684632283243	COHERENT	LEFT	0	0
0	0	1	0.659483156744045	RANDOM	NONE	0	0
0	0	1	0.803239884115555	RANDOM	NONE	0	0
0	0	1	0.769088228707005	RANDOM	NONE	0	0
0	0	1	0.712835779988836	RANDOM	NONE	0	0
1	180	1	0.597774858601042	COHERENT	LEFT	0	0
1	0	1	0.653699201740892	COHERENT	RIGHT	0	0
1	0	1	0.554408477257766	COHERENT	RIGHT	0	0
1	0	1	0.698202935262088	COHERENT	RIGHT	0	0
0	0	1	0.634104024258704	RANDOM	NONE	0	0
1	0	1	0.587962781296937	COHERENT	RIGHT	0	0
0	0	1	0.539376895209898	RANDOM	NONE	0	0
1	180	1	0.524483256352596	COHERENT	LEFT	0	0
1	0	1	0.638423427039925	COHERENT	RIGHT	0	0
1	180	1	0.588221764357058	COHERENT	LEFT	0	0
0	0	1	0.768061653664063	RANDOM	NONE	0	0
0	0	1	0.897794659636475	RANDOM	NONE	0	0
1	180	1	0.589717104774536	COHERENT	LEFT	0	0
0	0	1	0.509438694966775	RANDOM	NONE	0	0
1	0	1	0.56436634572492	COHERENT	RIGHT	0	0
1	0	1	0.578108143839927	COHERENT	RIGHT	0	0
0	0	1	1.04992517261007	RANDOM	NONE	0	0
0	0	1	0.767771882408397	RANDOM	NONE	0	0
1	0	1	0.628437486982875	COHERENT	RIGHT	0	0
0	0	1	0.828285779656653	RANDOM	NONE	0	0
1	180	1	0.528124413288879	COHERENT	LEFT	0	0
1	180	1	0.488988088590304	COHERENT	LEFT	0	0
1	180	1	0.599920373273562	COHERENT	LEFT	0	0
1	180	1	0.550860590445154	COHERENT	LEFT	0	0
0	0	1	0.839304935348082	RANDOM	NONE	0	0
