onset	duration	trial_type	trial_type_id	response_time	bad_epoch	outliers	direction	name_direction	event_num	response_accuracy
62.2109375	0.2	RANDOM	0	0.640567965278024	0	0	0	NONE	1.0	1
63.48095703125	0.2	COHERENT	1	0.69358900484076	0	0	180	LEFT	5.0	1
65.03076171875	0.2	COHERENT	1	0.789340554292721	0	0	180	LEFT	8.0	1
66.6806640625	0.2	RANDOM	0	0.573841613619152	0	0	0	NONE	11.0	1
67.96044921875	0.2	COHERENT	1	0.708840069677535	0	0	180	LEFT	15.0	1
69.45068359375	0.2	RANDOM	0	0.624811912286532	0	0	0	NONE	19.0	1
70.75048828125	0.2	COHERENT	1	n/a	0	1	0	RIGHT	23.0	0
72.68017578125	0.2	RANDOM	0	0.87932503639604	0	0	0	NONE	24.0	1
74.22021484375	0.2	RANDOM	0	0.818146310131851	0	0	0	NONE	27.0	1
75.83984375	0.2	RANDOM	0	0.820994527835865	0	0	0	NONE	30.0	1
77.5498046875	0.2	COHERENT	1	0.589853631914593	0	0	180	LEFT	33.0	1
78.94970703125	0.2	RANDOM	0	0.629616393129254	0	0	0	NONE	37.0	1
80.36962890625	0.2	RANDOM	0	n/a	0	1	0	NONE	41.0	0
82.45947265625	0.2	COHERENT	1	0.765072145692102	0	0	0	RIGHT	42.0	1
83.9794921875	0.2	RANDOM	0	0.670622155666933	0	0	0	NONE	45.0	1
85.33935546875	0.2	COHERENT	1	0.607849683168752	0	0	0	RIGHT	49.0	1
86.5390625	0.2	RANDOM	0	0.607370351914142	0	0	0	NONE	53.0	1
88.00927734375	0.2	COHERENT	1	0.61945867563918	0	0	180	LEFT	57.0	1
89.47900390625	0.2	COHERENT	1	0.749117478113476	0	0	180	LEFT	61.0	1
90.87890625	0.2	COHERENT	1	0.828073417371343	0	0	0	RIGHT	65.0	1
92.57861328125	0.2	COHERENT	1	0.644805579559034	0	0	0	RIGHT	68.0	1
93.82861328125	0.2	RANDOM	0	0.798571604937024	0	0	0	NONE	72.0	1
95.44873046875	0.2	RANDOM	0	0.894865571426635	0	0	0	NONE	75.0	1
97.16845703125	0.2	RANDOM	0	0.894252824295108	0	0	0	NONE	78.0	1
98.66845703125	0.2	RANDOM	0	n/a	0	1	0	NONE	82.0	0
100.38818359375	0.2	COHERENT	1	0.712877560141351	0	0	180	LEFT	84.0	1
101.76806640625	0.2	RANDOM	0	0.653595331532415	0	0	0	NONE	88.0	1
103.1279296875	0.2	RANDOM	0	n/a	0	1	0	NONE	92.0	0
105.1279296875	0.2	RANDOM	0	0.979856919017038	0	0	0	NONE	93.0	1
106.927734375	0.2	COHERENT	1	0.714588120736153	0	0	0	RIGHT	96.0	1
108.37744140625	0.2	RANDOM	0	n/a	0	1	0	NONE	100.0	0
110.197265625	0.2	RANDOM	0	n/a	0	1	0	NONE	101.0	0
111.8271484375	0.2	RANDOM	0	0.759372389977216	0	0	0	NONE	104.0	1
113.26708984375	0.2	RANDOM	0	0.853234987920587	0	0	0	NONE	108.0	1
114.7373046875	0.2	COHERENT	1	0.788025109955925	0	0	0	RIGHT	112.0	1
116.3369140625	0.2	COHERENT	1	0.684801667637657	0	0	0	RIGHT	115.0	1
117.73681640625	0.2	RANDOM	0	0.838332856917987	0	0	0	NONE	119.0	1
119.4365234375	0.2	COHERENT	1	0.594492097523471	0	0	0	RIGHT	122.0	1
120.78662109375	0.2	COHERENT	1	0.589249940159789	0	0	180	LEFT	126.0	1
122.15673828125	0.2	RANDOM	0	0.755080141589133	0	0	0	NONE	130.0	1
123.65625	0.2	COHERENT	1	0.55982026888887	0	0	0	RIGHT	134.0	1
124.986328125	0.2	COHERENT	1	0.774583007467299	0	0	180	LEFT	138.0	1
126.43603515625	0.2	COHERENT	1	0.613303736336093	0	0	0	RIGHT	142.0	1
127.92626953125	0.2	COHERENT	1	0.674264831723121	0	0	180	LEFT	146.0	1
129.2060546875	0.2	RANDOM	0	0.738088331574545	0	0	0	NONE	150.0	1
130.7958984375	0.2	RANDOM	0	1.12083826222442	0	0	0	NONE	153.0	1
132.6455078125	0.2	COHERENT	1	0.603475332703965	0	0	180	LEFT	155.0	1
134.04541015625	0.2	RANDOM	0	0.779389601229923	0	0	0	NONE	159.0	1
135.435546875	0.2	COHERENT	1	0.708144918622565	0	0	0	RIGHT	163.0	1
136.83544921875	0.2	COHERENT	1	n/a	0	1	180	LEFT	167.0	0
n/a	0.2	RANDOM	0	n/a	1	1	0	NONE	n/a	0
140.51513671875	0.2	COHERENT	1	0.84978670061173	0	0	180	LEFT	169.0	1
142.134765625	0.2	RANDOM	0	1.08454159722896	0	0	0	NONE	172.0	1
144.125	0.2	COHERENT	1	1.14882752496123	0	0	0	RIGHT	174.0	1
146.1044921875	0.2	COHERENT	1	0.694681988767115	0	0	0	RIGHT	176.0	1
147.5244140625	0.2	RANDOM	0	1.09476511712273	0	0	0	NONE	180.0	1
149.39453125	0.2	RANDOM	0	1.17454962330885	0	0	0	NONE	182.0	1
151.4443359375	0.2	RANDOM	0	n/a	0	1	0	NONE	184.0	0
153.32421875	0.2	COHERENT	1	0.957807379469159	0	0	0	RIGHT	185.0	1
155.06396484375	0.2	COHERENT	1	0.775700139060064	0	0	180	LEFT	188.0	1
156.44384765625	0.2	RANDOM	0	1.00756486139653	0	0	0	NONE	192.0	1
158.3037109375	0.2	RANDOM	0	1.17911594775433	0	0	0	NONE	194.0	1
160.2333984375	0.2	COHERENT	1	0.640190657930361	0	0	180	LEFT	196.0	1
161.46337890625	0.2	RANDOM	0	0.978006603781978	0	0	0	NONE	200.0	1
163.103515625	0.2	RANDOM	0	1.04777012866907	0	0	0	NONE	203.0	1
165.0234375	0.2	COHERENT	1	0.764165098826197	0	0	180	LEFT	205.0	1
166.54296875	0.2	RANDOM	0	0.810876050309162	0	0	0	NONE	208.0	1
168.22314453125	0.2	RANDOM	0	0.873101578079513	0	0	0	NONE	211.0	1
169.85302734375	0.2	COHERENT	1	0.870530756736116	0	0	180	LEFT	214.0	1
171.54248046875	0.2	RANDOM	0	0.864765500464273	0	0	0	NONE	217.0	1
173.04248046875	0.2	COHERENT	1	0.853496084608196	0	0	0	RIGHT	221.0	1
174.642578125	0.2	COHERENT	1	0.789140430471889	0	0	180	LEFT	224.0	1
176.1123046875	0.2	COHERENT	1	0.763069700136839	0	0	180	LEFT	228.0	1
177.6923828125	0.2	COHERENT	1	0.714737232599873	0	0	0	RIGHT	231.0	1
179.01220703125	0.2	COHERENT	1	0.828751363209449	0	0	0	RIGHT	235.0	1
180.56201171875	0.2	COHERENT	1	1.17449921504885	0	0	180	LEFT	238.0	1
182.43212890625	0.2	RANDOM	0	0.71830505087928	0	0	0	NONE	240.0	1
183.87158203125	0.2	COHERENT	1	n/a	0	1	0	RIGHT	244.0	0
185.4814453125	0.2	RANDOM	0	0.877914208758739	0	0	0	NONE	246.0	1
186.99169921875	0.2	RANDOM	0	0.892742991214618	0	0	0	NONE	249.0	1
188.6015625	0.2	COHERENT	1	0.764290063023509	0	0	0	RIGHT	252.0	1
190.04150390625	0.2	COHERENT	1	0.933354844884889	0	0	180	LEFT	256.0	1
191.67138671875	0.2	RANDOM	0	0.828143143768102	0	0	0	NONE	259.0	1
193.2412109375	0.2	RANDOM	0	0.825021151849796	0	0	0	NONE	262.0	1
194.9111328125	0.2	COHERENT	1	0.779759060580545	0	0	180	LEFT	265.0	1
196.390625	0.2	RANDOM	0	0.738589697575662	0	0	0	NONE	269.0	1
197.86083984375	0.2	COHERENT	1	0.834357244861167	0	0	180	LEFT	273.0	1
199.46044921875	0.2	COHERENT	1	0.954038229989237	0	0	180	LEFT	276.0	1
201.1103515625	0.2	RANDOM	0	0.777952513002674	0	0	0	NONE	279.0	1
202.58056640625	0.2	RANDOM	0	1.03265700739576	0	0	0	NONE	283.0	1
204.27001953125	0.2	COHERENT	1	0.748505032828689	0	0	180	LEFT	285.0	1
205.84033203125	0.2	RANDOM	0	0.764649259617727	0	0	0	NONE	288.0	1
207.5	0.2	RANDOM	0	0.949077996672713	0	0	0	NONE	291.0	1
209.2197265625	0.2	COHERENT	1	0.694747791167174	0	0	0	RIGHT	294.0	1
210.68994140625	0.2	COHERENT	1	0.824711759825732	0	0	0	RIGHT	298.0	1
212.23974609375	0.2	COHERENT	1	0.934470467247593	0	0	0	RIGHT	301.0	1
214.0595703125	0.2	COHERENT	1	0.753986855819676	0	0	180	LEFT	304.0	1
215.50927734375	0.2	RANDOM	0	0.818035532691283	0	0	0	NONE	308.0	1
217.1591796875	0.2	COHERENT	1	0.784932698934426	0	0	0	RIGHT	311.0	1
218.7490234375	0.2	RANDOM	0	0.7694917730405	0	0	0	NONE	314.0	1
220.30908203125	0.2	RANDOM	0	0.709515902599378	0	0	0	NONE	317.0	1
221.76904296875	0.2	RANDOM	0	0.789216193792527	0	0	0	NONE	321.0	1
223.21875	0.2	COHERENT	1	0.808096351618588	0	0	180	LEFT	325.0	1
224.81884765625	0.2	COHERENT	1	0.709583214229497	0	0	180	LEFT	328.0	1
226.19873046875	0.2	RANDOM	0	1.04371694221481	0	0	0	NONE	332.0	1
227.86865234375	0.2	COHERENT	1	0.7832145921966	0	0	180	LEFT	334.0	1
229.33837890625	0.2	COHERENT	1	0.773461951874197	0	0	0	RIGHT	338.0	1
230.88818359375	0.2	RANDOM	0	0.724178669817775	0	0	0	NONE	341.0	1
232.35791015625	0.2	RANDOM	0	0.789946057120687	0	0	0	NONE	345.0	1
234.02783203125	0.2	RANDOM	0	0.884599491266272	0	0	0	NONE	348.0	1
235.677734375	0.2	COHERENT	1	0.764351035886648	0	0	0	RIGHT	351.0	1
237.03759765625	0.2	RANDOM	0	0.848445297528087	0	0	0	NONE	355.0	1
238.69775390625	0.2	RANDOM	0	0.809068899037811	0	0	0	NONE	358.0	1
240.2275390625	0.2	RANDOM	0	1.07453691559931	0	0	0	NONE	361.0	1
242.17724609375	0.2	RANDOM	0	0.644377260261535	0	0	0	NONE	363.0	1
243.5771484375	0.2	COHERENT	1	0.789501136299805	0	0	0	RIGHT	367.0	1
245.26708984375	0.2	RANDOM	0	0.749283795190422	0	0	0	NONE	370.0	1
246.8671875	0.2	COHERENT	1	0.799059689717978	0	0	0	RIGHT	373.0	1
248.48681640625	0.2	COHERENT	1	0.924664098361973	0	0	0	RIGHT	376.0	1
250.13671875	0.2	COHERENT	1	0.904722650422627	0	0	0	RIGHT	379.0	1
251.81640625	0.2	COHERENT	1	0.894460192415863	0	0	180	LEFT	382.0	1
253.4765625	0.2	COHERENT	1	0.919957415582758	0	0	0	RIGHT	385.0	1
255.1064453125	0.2	RANDOM	0	0.863019020216598	0	0	0	NONE	388.0	1
256.8759765625	0.2	COHERENT	1	1.12074197338734	0	0	180	LEFT	391.0	1
258.72607421875	0.2	RANDOM	0	0.784405072339723	0	0	0	NONE	393.0	1
260.27587890625	0.2	COHERENT	1	0.994051523281087	0	0	0	RIGHT	396.0	1
261.94580078125	0.2	RANDOM	0	0.923050732144475	0	0	0	NONE	398.0	1
263.4755859375	0.2	RANDOM	0	0.917567701766529	0	0	0	NONE	401.0	1
265.11572265625	0.2	RANDOM	0	0.84468973111143	0	0	0	NONE	404.0	1
266.66552734375	0.2	COHERENT	1	0.748247558294679	0	0	0	RIGHT	407.0	1
268.08544921875	0.2	COHERENT	1	0.793285981762892	0	0	180	LEFT	411.0	1
269.5654296875	0.2	COHERENT	1	0.783174144849909	0	0	0	RIGHT	415.0	1
271.18505859375	0.2	COHERENT	1	0.540002577763516	0	0	180	LEFT	418.0	1
272.5849609375	0.2	RANDOM	0	0.699595737816708	0	0	0	NONE	422.0	1
274.0849609375	0.2	RANDOM	0	0.679593618857325	0	0	0	NONE	426.0	1
275.65478515625	0.2	RANDOM	0	0.829286234107713	0	0	0	NONE	429.0	1
277.37451171875	0.2	COHERENT	1	0.785919433110394	0	0	0	RIGHT	432.0	1
278.974609375	0.2	RANDOM	0	0.683976722852094	0	0	0	NONE	435.0	1
280.29443359375	0.2	RANDOM	0	0.842898275826883	0	0	0	NONE	439.0	1
281.9140625	0.2	COHERENT	1	0.794517814792925	0	0	180	LEFT	442.0	1
283.3642578125	0.2	RANDOM	0	1.19805194707442	0	0	0	NONE	446.0	1
285.244140625	0.2	COHERENT	1	0.778189462020237	0	0	180	LEFT	448.0	1
286.93408203125	0.2	COHERENT	1	0.82857448152572	0	0	0	RIGHT	451.0	1
288.48388671875	0.2	RANDOM	0	0.724888309479866	0	0	0	NONE	454.0	1
289.91357421875	0.2	RANDOM	0	0.948482756601152	0	0	0	NONE	458.0	1
291.61376953125	0.2	RANDOM	0	0.769011536245671	0	0	0	NONE	461.0	1
293.25341796875	0.2	COHERENT	1	0.754196336860332	0	0	180	LEFT	464.0	1
294.9033203125	0.2	COHERENT	1	0.73095329870921	0	0	0	RIGHT	467.0	1
296.4931640625	0.2	COHERENT	1	0.799691453143168	0	0	180	LEFT	470.0	1
297.89306640625	0.2	COHERENT	1	0.808314586189226	0	0	180	LEFT	474.0	1
n/a	0.2	COHERENT	1	0.989599900269241	1	0	180	LEFT	n/a	1
319.94140625	0.2	RANDOM	0	0.654477627031156	0	0	0	NONE	477.0	1
321.22119140625	0.2	COHERENT	1	0.903535188739625	0	0	0	RIGHT	481.0	1
322.76123046875	0.2	RANDOM	0	0.74338180273844	0	0	0	NONE	484.0	1
324.23095703125	0.2	RANDOM	0	0.934230197930447	0	0	0	NONE	488.0	1
325.81103515625	0.2	COHERENT	1	0.707582277904294	0	0	180	LEFT	491.0	1
327.291015625	0.2	COHERENT	1	0.62484753010358	0	0	0	RIGHT	495.0	1
328.80078125	0.2	RANDOM	0	0.734655136555375	0	0	0	NONE	498.0	1
330.20068359375	0.2	COHERENT	1	0.813448682729359	0	0	180	LEFT	502.0	1
331.8505859375	0.2	COHERENT	1	0.704216092672141	0	0	0	RIGHT	505.0	1
333.2705078125	0.2	RANDOM	0	0.685027146508219	0	0	0	NONE	509.0	1
334.67041015625	0.2	COHERENT	1	0.737618961233238	0	0	0	RIGHT	513.0	1
336.02001953125	0.2	RANDOM	0	0.663727693969122	0	0	0	NONE	517.0	1
337.419921875	0.2	COHERENT	1	n/a	0	1	0	RIGHT	521.0	0
339.44970703125	0.2	COHERENT	1	0.730228566753794	0	0	180	LEFT	522.0	1
340.83984375	0.2	COHERENT	1	0.819129724000959	0	0	180	LEFT	526.0	1
342.48974609375	0.2	RANDOM	0	0.694836835700698	0	0	0	NONE	529.0	1
343.859375	0.2	COHERENT	1	0.893665130370209	0	0	0	RIGHT	533.0	1
345.3896484375	0.2	COHERENT	1	0.848424772008002	0	0	180	LEFT	536.0	1
347.0791015625	0.2	RANDOM	0	0.794064442285162	0	0	0	NONE	539.0	1
348.75927734375	0.2	RANDOM	0	1.04899743400892	0	0	0	NONE	542.0	1
350.4091796875	0.2	RANDOM	0	1.00764847270693	0	0	0	NONE	544.0	1
352.09912109375	0.2	COHERENT	1	0.743656180642574	0	0	0	RIGHT	546.0	1
353.5185546875	0.2	COHERENT	1	0.833431785398716	0	0	180	LEFT	550.0	1
355.24853515625	0.2	COHERENT	1	0.749216483560303	0	0	180	LEFT	553.0	1
356.888671875	0.2	RANDOM	0	0.654980502265971	0	0	0	NONE	556.0	1
358.38818359375	0.2	COHERENT	1	0.709848838603648	0	0	0	RIGHT	560.0	1
359.818359375	0.2	COHERENT	1	0.7246432106258	0	0	0	RIGHT	564.0	1
361.26806640625	0.2	COHERENT	1	0.794391945062671	0	0	0	RIGHT	568.0	1
362.73828125	0.2	RANDOM	0	0.673288058464095	0	0	0	NONE	572.0	1
364.22802734375	0.2	COHERENT	1	0.769736268201086	0	0	0	RIGHT	576.0	1
365.85791015625	0.2	COHERENT	1	1.08388870459748	0	0	0	RIGHT	579.0	1
367.84765625	0.2	COHERENT	1	0.8785870232241	0	0	0	RIGHT	581.0	1
369.4775390625	0.2	COHERENT	1	0.719406184638501	0	0	180	LEFT	584.0	1
371.09765625	0.2	RANDOM	0	0.669073082623072	0	0	0	NONE	587.0	1
372.41748046875	0.2	RANDOM	0	0.957977318696067	0	0	0	NONE	591.0	1
374.2470703125	0.2	COHERENT	1	0.804827964449942	0	0	0	RIGHT	594.0	1
375.76708984375	0.2	COHERENT	1	1.05767640854174	0	0	180	LEFT	597.0	1
377.537109375	0.2	COHERENT	1	n/a	0	1	180	LEFT	599.0	0
379.63671875	0.2	RANDOM	0	0.839141502026905	0	0	0	NONE	600.0	1
381.2666015625	0.2	RANDOM	0	0.839991500019096	0	0	0	NONE	603.0	1
382.986328125	0.2	COHERENT	1	1.02429859318727	0	0	180	LEFT	606.0	1
384.7265625	0.2	COHERENT	1	0.748498694065347	0	0	0	RIGHT	608.0	1
386.30615234375	0.2	RANDOM	0	0.699187642188917	0	0	0	NONE	611.0	1
387.89599609375	0.2	COHERENT	1	0.594134410159313	0	0	0	RIGHT	614.0	1
389.09619140625	0.2	RANDOM	0	0.687867818069208	0	0	0	NONE	618.0	1
390.44580078125	0.2	COHERENT	1	0.763656790368259	0	0	180	LEFT	622.0	1
392.06591796875	0.2	RANDOM	0	0.779462346083164	0	0	0	NONE	625.0	1
393.4658203125	0.2	RANDOM	0	0.853369913031202	0	0	0	NONE	629.0	1
395.1455078125	0.2	RANDOM	0	0.884103256645176	0	0	0	NONE	632.0	1
396.88525390625	0.2	COHERENT	1	0.638888494813727	0	0	180	LEFT	635.0	1
398.24560546875	0.2	RANDOM	0	0.614686190463544	0	0	0	NONE	639.0	1
399.51513671875	0.2	COHERENT	1	0.648922455493448	0	0	0	RIGHT	643.0	1
400.76513671875	0.2	COHERENT	1	0.667181716351479	0	0	0	RIGHT	647.0	1
402.30517578125	0.2	COHERENT	1	0.654152539020288	0	0	0	RIGHT	650.0	1
403.73486328125	0.2	RANDOM	0	0.785086036637949	0	0	0	NONE	654.0	1
405.2548828125	0.2	COHERENT	1	0.934879166565224	0	0	180	LEFT	657.0	1
407.0048828125	0.2	COHERENT	1	0.644508865061653	0	0	180	LEFT	660.0	1
408.3046875	0.2	RANDOM	0	0.668479351777933	0	0	0	NONE	664.0	1
409.724609375	0.2	RANDOM	0	0.939214880760119	0	0	0	NONE	668.0	1
411.494140625	0.2	RANDOM	0	0.624873187000048	0	0	0	NONE	671.0	1
412.89404296875	0.2	RANDOM	0	0.844869933102018	0	0	0	NONE	675.0	1
414.56396484375	0.2	COHERENT	1	0.864657137797622	0	0	180	LEFT	678.0	1
416.083984375	0.2	RANDOM	0	0.957460256708146	0	0	0	NONE	681.0	1
417.73388671875	0.2	RANDOM	0	0.80800006278514	0	0	0	NONE	684.0	1
419.45361328125	0.2	RANDOM	0	0.729928833799931	0	0	0	NONE	687.0	1
421.0634765625	0.2	COHERENT	1	0.699807935467106	0	0	0	RIGHT	690.0	1
422.5634765625	0.2	RANDOM	0	0.808589265936462	0	0	0	NONE	694.0	1
424.05322265625	0.2	RANDOM	0	0.753426629868045	0	0	0	NONE	698.0	1
425.4833984375	0.2	COHERENT	1	0.862936616289517	0	0	180	LEFT	702.0	1
427.2529296875	0.2	RANDOM	0	0.700422493675433	0	0	0	NONE	705.0	1
428.60302734375	0.2	RANDOM	0	0.767595275385247	0	0	0	NONE	709.0	1
430.1728515625	0.2	COHERENT	1	0.75964525865129	0	0	0	RIGHT	712.0	1
431.56298828125	0.2	COHERENT	1	0.873418214407138	0	0	0	RIGHT	716.0	1
433.16259765625	0.2	COHERENT	1	0.694297135269153	0	0	180	LEFT	719.0	1
434.74267578125	0.2	RANDOM	0	0.709111429125187	0	0	0	NONE	722.0	1
436.2822265625	0.2	RANDOM	0	0.754861303328653	0	0	0	NONE	725.0	1
437.9423828125	0.2	RANDOM	0	0.589394222490228	0	0	0	NONE	728.0	1
439.38232421875	0.2	COHERENT	1	0.65940375176433	0	0	180	LEFT	732.0	1
440.65234375	0.2	COHERENT	1	1.09808119593799	0	0	0	RIGHT	736.0	1
442.53173828125	0.2	RANDOM	0	0.679096176849271	0	0	0	NONE	738.0	1
444.02197265625	0.2	COHERENT	1	0.710735661792569	0	0	180	LEFT	742.0	1
445.3515625	0.2	RANDOM	0	0.743768467305927	0	0	0	NONE	746.0	1
446.8017578125	0.2	RANDOM	0	0.748930031826603	0	0	0	NONE	750.0	1
448.37158203125	0.2	COHERENT	1	0.833336402098212	0	0	0	RIGHT	753.0	1
449.84130859375	0.2	RANDOM	0	0.743110443294427	0	0	0	NONE	757.0	1
451.26123046875	0.2	RANDOM	0	0.802926033571566	0	0	0	NONE	761.0	1
452.96142578125	0.2	COHERENT	1	0.639650353808975	0	0	0	RIGHT	764.0	1
454.43115234375	0.2	RANDOM	0	0.66471382445161	0	0	0	NONE	768.0	1
455.99072265625	0.2	RANDOM	0	0.73936061195127	0	0	0	NONE	771.0	1
457.5810546875	0.2	RANDOM	0	0.649133445760526	0	0	0	NONE	774.0	1
458.91064453125	0.2	COHERENT	1	0.622881607898307	0	0	0	RIGHT	778.0	1
460.4306640625	0.2	COHERENT	1	0.769799655834504	0	0	0	RIGHT	781.0	1
461.83056640625	0.2	RANDOM	0	0.773616496964678	0	0	0	NONE	785.0	1
463.400390625	0.2	COHERENT	1	0.75942581669733	0	0	180	LEFT	788.0	1
464.7802734375	0.2	COHERENT	1	1.01286678424731	0	0	180	LEFT	792.0	1
466.6201171875	0.2	COHERENT	1	0.685030768661818	0	0	180	LEFT	794.0	1
468.18994140625	0.2	COHERENT	1	0.734789156125771	0	0	0	RIGHT	797.0	1
469.64013671875	0.2	COHERENT	1	n/a	0	1	180	LEFT	801.0	0
471.65966796875	0.2	RANDOM	0	0.704340453172335	0	0	0	NONE	802.0	1
473.16943359375	0.2	RANDOM	0	1.06885889278419	0	0	0	NONE	805.0	1
475.0595703125	0.2	RANDOM	0	0.824478432961769	0	0	0	NONE	807.0	1
476.689453125	0.2	RANDOM	0	0.719358492991887	0	0	0	NONE	810.0	1
478.109375	0.2	COHERENT	1	0.74862094164564	0	0	0	RIGHT	814.0	1
479.529296875	0.2	COHERENT	1	0.733310715018888	0	0	180	LEFT	818.0	1
480.958984375	0.2	RANDOM	0	0.958069079842971	0	0	0	NONE	822.0	1
482.64892578125	0.2	RANDOM	0	1.01483964890576	0	0	0	NONE	825.0	1
484.39892578125	0.2	RANDOM	0	0.724814357239666	0	0	0	NONE	827.0	1
485.99853515625	0.2	COHERENT	1	0.704673691023345	0	0	180	LEFT	830.0	1
487.5986328125	0.2	RANDOM	0	0.609354384869221	0	0	0	NONE	833.0	1
488.9384765625	0.2	COHERENT	1	0.654091868000251	0	0	180	LEFT	837.0	1
490.30810546875	0.2	RANDOM	0	0.8055611480886	0	0	0	NONE	841.0	1
491.83837890625	0.2	COHERENT	1	0.753827783042652	0	0	0	RIGHT	844.0	1
493.38818359375	0.2	RANDOM	0	0.819580681742082	0	0	0	NONE	847.0	1
494.837890625	0.2	COHERENT	1	0.6833386206672	0	0	180	LEFT	851.0	1
496.427734375	0.2	COHERENT	1	0.678922917319142	0	0	180	LEFT	854.0	1
497.82763671875	0.2	RANDOM	0	0.694907769480778	0	0	0	NONE	858.0	1
499.20751953125	0.2	COHERENT	1	0.59287329808285	0	0	0	RIGHT	862.0	1
500.44775390625	0.2	COHERENT	1	0.738597847415804	0	0	180	LEFT	866.0	1
501.92724609375	0.2	COHERENT	1	0.599365097379632	0	0	180	LEFT	870.0	1
503.26708984375	0.2	RANDOM	0	0.624333184721763	0	0	0	NONE	874.0	1
504.62744140625	0.2	COHERENT	1	0.599104906232242	0	0	0	RIGHT	878.0	1
505.8671875	0.2	COHERENT	1	0.623045510208613	0	0	180	LEFT	882.0	1
507.23681640625	0.2	RANDOM	0	0.680868615843792	0	0	0	NONE	886.0	1
508.73681640625	0.2	RANDOM	0	0.784587085403473	0	0	0	NONE	890.0	1
510.1669921875	0.2	RANDOM	0	0.688971366598707	0	0	0	NONE	894.0	1
511.53662109375	0.2	RANDOM	0	0.632112658538972	0	0	0	NONE	898.0	1
512.90673828125	0.2	RANDOM	0	0.674049011922762	0	0	0	NONE	902.0	1
514.25634765625	0.2	COHERENT	1	0.633453759775875	0	0	0	RIGHT	906.0	1
515.55615234375	0.2	RANDOM	0	0.692755004682112	0	0	0	NONE	910.0	1
517.05615234375	0.2	RANDOM	0	0.849287145680137	0	0	0	NONE	914.0	1
518.576171875	0.2	COHERENT	1	0.653313709324721	0	0	180	LEFT	917.0	1
519.9560546875	0.2	COHERENT	1	1.00411687593078	0	0	0	RIGHT	921.0	1
521.61572265625	0.2	COHERENT	1	n/a	0	1	180	LEFT	923.0	0
523.5458984375	0.2	COHERENT	1	0.944654143484513	0	0	0	RIGHT	924.0	1
525.2255859375	0.2	RANDOM	0	0.609475123219454	0	0	0	NONE	927.0	1
526.6953125	0.2	RANDOM	0	0.759259499616746	0	0	0	NONE	931.0	1
528.08544921875	0.2	RANDOM	0	0.673106045400345	0	0	0	NONE	935.0	1
529.455078125	0.2	COHERENT	1	0.618005589582026	0	0	180	LEFT	939.0	1
530.75537109375	0.2	RANDOM	0	0.692790018802043	0	0	0	NONE	943.0	1
532.10498046875	0.2	RANDOM	0	0.898564692666696	0	0	0	NONE	947.0	1
533.8349609375	0.2	RANDOM	0	0.589852726378012	0	0	0	NONE	950.0	1
535.0849609375	0.2	COHERENT	1	0.837126982638438	0	0	0	RIGHT	954.0	1
536.5546875	0.2	COHERENT	1	0.763059437376796	0	0	180	LEFT	958.0	1
538.0048828125	0.2	COHERENT	1	n/a	0	1	0	RIGHT	962.0	0
n/a	0.2	RANDOM	0	n/a	1	1	0	NONE	n/a	0
541.59423828125	0.2	RANDOM	0	0.924967151622695	0	0	0	NONE	964.0	1
543.17431640625	0.2	COHERENT	1	0.587103514120827	0	0	180	LEFT	967.0	1
544.39404296875	0.2	RANDOM	0	0.833027613767626	0	0	0	NONE	971.0	1
546.13427734375	0.2	RANDOM	0	0.658824207675934	0	0	0	NONE	974.0	1
570.9619140625	0.2	COHERENT	1	0.629444944668649	0	0	0	RIGHT	976.0	1
572.2822265625	0.2	COHERENT	1	0.723447297255916	0	0	180	LEFT	980.0	1
573.7021484375	0.2	RANDOM	0	0.529114091401425	0	0	0	NONE	984.0	1
574.85205078125	0.2	RANDOM	0	0.613083087002451	0	0	0	NONE	988.0	1
576.20166015625	0.2	RANDOM	0	0.485030708288832	0	0	0	NONE	992.0	1
577.40185546875	0.2	RANDOM	0	0.474686450048466	0	0	0	NONE	996.0	1
578.54150390625	0.2	COHERENT	1	0.788311561693263	0	0	0	RIGHT	1000.0	1
580.19140625	0.2	COHERENT	1	0.564554117798252	0	0	0	RIGHT	1003.0	1
581.6611328125	0.2	RANDOM	0	0.630276228217554	0	0	0	NONE	1007.0	1
583.041015625	0.2	COHERENT	1	0.709036269498029	0	0	180	LEFT	1011.0	1
584.4609375	0.2	RANDOM	0	0.618000760048744	0	0	0	NONE	1015.0	1
585.78076171875	0.2	COHERENT	1	0.667789332102984	0	0	180	LEFT	1019.0	1
587.041015625	0.2	RANDOM	0	0.548606694519549	0	0	0	NONE	1023.0	1
588.2607421875	0.2	COHERENT	1	0.633515940029611	0	0	0	RIGHT	1027.0	1
589.65087890625	0.2	RANDOM	0	0.689936367871269	0	0	0	NONE	1031.0	1
590.95068359375	0.2	RANDOM	0	0.728061011501268	0	0	0	NONE	1035.0	1
592.310546875	0.2	COHERENT	1	0.547981269861339	0	0	180	LEFT	1039.0	1
593.75048828125	0.2	RANDOM	0	0.844717802778177	0	0	0	NONE	1043.0	1
595.22021484375	0.2	COHERENT	1	0.553508369735937	0	0	180	LEFT	1047.0	1
596.6201171875	0.2	COHERENT	1	0.689294039839297	0	0	0	RIGHT	1051.0	1
598.0	0.2	COHERENT	1	0.618227748149366	0	0	180	LEFT	1055.0	1
599.5	0.2	RANDOM	0	0.604033143885317	0	0	0	NONE	1059.0	1
600.73974609375	0.2	COHERENT	1	0.722822476287547	0	0	0	RIGHT	1063.0	1
602.259765625	0.2	RANDOM	0	0.618562193383696	0	0	0	NONE	1066.0	1
603.4697265625	0.2	COHERENT	1	0.598518117847561	0	0	180	LEFT	1070.0	1
604.7294921875	0.2	COHERENT	1	0.818306590292195	0	0	180	LEFT	1074.0	1
606.28955078125	0.2	COHERENT	1	0.659027349953249	0	0	180	LEFT	1077.0	1
607.5595703125	0.2	COHERENT	1	0.737957934157748	0	0	180	LEFT	1081.0	1
609.12939453125	0.2	RANDOM	0	0.704825519500446	0	0	0	NONE	1084.0	1
610.67919921875	0.2	COHERENT	1	0.829375580484339	0	0	0	RIGHT	1087.0	1
612.21875	0.2	RANDOM	0	0.858367575230659	0	0	0	NONE	1090.0	1
613.71875	0.2	RANDOM	0	n/a	0	1	0	NONE	1094.0	0
615.64892578125	0.2	COHERENT	1	0.975000822531001	0	0	0	RIGHT	1095.0	1
617.4384765625	0.2	COHERENT	1	0.884603415266611	0	0	0	RIGHT	1098.0	1
619.068359375	0.2	RANDOM	0	0.629514369222306	0	0	0	NONE	1101.0	1
620.53857421875	0.2	RANDOM	0	0.724260470051377	0	0	0	NONE	1105.0	1
622.158203125	0.2	RANDOM	0	0.679180693696253	0	0	0	NONE	1108.0	1
623.68798828125	0.2	RANDOM	0	0.599664226643654	0	0	0	NONE	1111.0	1
625.0078125	0.2	RANDOM	0	0.66463957036467	0	0	0	NONE	1115.0	1
626.57763671875	0.2	COHERENT	1	0.709550614872569	0	0	180	LEFT	1118.0	1
627.94775390625	0.2	RANDOM	0	0.618375652629766	0	0	0	NONE	1122.0	1
629.15771484375	0.2	RANDOM	0	0.59824675839991	0	0	0	NONE	1126.0	1
630.45751953125	0.2	RANDOM	0	0.558026096990943	0	0	0	NONE	1130.0	1
631.8974609375	0.2	COHERENT	1	0.594788208331011	0	0	180	LEFT	1134.0	1
633.3671875	0.2	COHERENT	1	0.534578709179186	0	0	0	RIGHT	1138.0	1
634.59716796875	0.2	RANDOM	0	0.548226670558506	0	0	0	NONE	1142.0	1
635.9169921875	0.2	COHERENT	1	0.624462072915776	0	0	180	LEFT	1146.0	1
637.1669921875	0.2	RANDOM	0	0.612948765585315	0	0	0	NONE	1150.0	1
638.51708984375	0.2	RANDOM	0	0.57501398300883	0	0	0	NONE	1154.0	1
639.93701171875	0.2	COHERENT	1	0.53075583113241	0	0	180	LEFT	1158.0	1
641.36669921875	0.2	COHERENT	1	0.779550183233368	0	0	0	RIGHT	1162.0	1
642.86669921875	0.2	COHERENT	1	0.564078106846864	0	0	0	RIGHT	1166.0	1
644.03662109375	0.2	COHERENT	1	0.598518721541041	0	0	180	LEFT	1170.0	1
645.50634765625	0.2	RANDOM	0	0.534229171651532	0	0	0	NONE	1174.0	1
646.826171875	0.2	RANDOM	0	0.844864198032155	0	0	0	NONE	1178.0	1
648.50634765625	0.2	COHERENT	1	0.669729899251251	0	0	0	RIGHT	1181.0	1
649.80615234375	0.2	COHERENT	1	0.723537549172761	0	0	180	LEFT	1185.0	1
651.326171875	0.2	RANDOM	0	0.699410102599359	0	0	0	NONE	1188.0	1
652.666015625	0.2	COHERENT	1	0.513967163395137	0	0	180	LEFT	1192.0	1
653.7958984375	0.2	COHERENT	1	0.643035857177892	0	0	0	RIGHT	1196.0	1
655.345703125	0.2	RANDOM	0	0.479780702935386	0	0	0	NONE	1199.0	1
656.49560546875	0.2	RANDOM	0	0.663705659218977	0	0	0	NONE	1203.0	1
657.865234375	0.2	COHERENT	1	0.578515697041439	0	0	180	LEFT	1207.0	1
659.0654296875	0.2	RANDOM	0	n/a	0	1	0	NONE	1211.0	0
660.55517578125	0.2	COHERENT	1	0.674195105326362	0	0	0	RIGHT	1215.0	1
662.01513671875	0.2	RANDOM	0	0.809702473536163	0	0	0	NONE	1219.0	1
663.455078125	0.2	RANDOM	0	0.693812974481261	0	0	0	NONE	1223.0	1
664.8349609375	0.2	COHERENT	1	0.633711234309885	0	0	180	LEFT	1227.0	1
666.23486328125	0.2	COHERENT	1	n/a	0	1	0	RIGHT	1231.0	0
668.15478515625	0.2	COHERENT	1	0.745558715210791	0	0	0	RIGHT	1232.0	1
669.6748046875	0.2	COHERENT	1	0.594027858565823	0	0	0	RIGHT	1235.0	1
671.04443359375	0.2	RANDOM	0	0.644911829309422	0	0	0	NONE	1239.0	1
672.37451171875	0.2	RANDOM	0	0.622719516657526	0	0	0	NONE	1243.0	1
673.814453125	0.2	COHERENT	1	0.654441103681165	0	0	180	LEFT	1247.0	1
675.34423828125	0.2	COHERENT	1	0.784221851892653	0	0	180	LEFT	1250.0	1
677.01416015625	0.2	RANDOM	0	0.484149016479932	0	0	0	NONE	1253.0	1
678.34375	0.2	RANDOM	0	0.519973594520707	0	0	0	NONE	1257.0	1
679.61376953125	0.2	COHERENT	1	0.669704544197884	0	0	0	RIGHT	1261.0	1
680.91357421875	0.2	RANDOM	0	0.693517165524099	0	0	0	NONE	1265.0	1
682.25341796875	0.2	COHERENT	1	0.558371710521897	0	0	180	LEFT	1269.0	1
683.58349609375	0.2	COHERENT	1	0.584241713349911	0	0	0	RIGHT	1273.0	1
684.92333984375	0.2	RANDOM	0	0.628980102017522	0	0	0	NONE	1277.0	1
686.17333984375	0.2	RANDOM	0	0.57291856892698	0	0	0	NONE	1281.0	1
687.4033203125	0.2	COHERENT	1	0.678584548088111	0	0	0	RIGHT	1285.0	1
688.80322265625	0.2	COHERENT	1	0.764530332340655	0	0	0	RIGHT	1289.0	1
690.32275390625	0.2	RANDOM	0	0.529446725558955	0	0	0	NONE	1292.0	1
691.52294921875	0.2	COHERENT	1	0.573229772024206	0	0	180	LEFT	1296.0	1
692.7626953125	0.2	COHERENT	1	0.928049601730891	0	0	0	RIGHT	1300.0	1
694.3125	0.2	RANDOM	0	0.622943788148405	0	0	0	NONE	1303.0	1
695.6826171875	0.2	RANDOM	0	n/a	0	1	0	NONE	1307.0	0
697.66259765625	0.2	RANDOM	0	0.674515363803948	0	0	0	NONE	1308.0	1
699.21240234375	0.2	RANDOM	0	0.924244834433921	0	0	0	NONE	1311.0	1
700.85205078125	0.2	COHERENT	1	0.514020288268512	0	0	180	LEFT	1314.0	1
702.26220703125	0.2	COHERENT	1	0.879878319887212	0	0	180	LEFT	1318.0	1
703.921875	0.2	COHERENT	1	0.844526130644226	0	0	180	LEFT	1321.0	1
705.60205078125	0.2	RANDOM	0	0.634483356068813	0	0	0	NONE	1324.0	1
706.841796875	0.2	RANDOM	0	n/a	0	1	0	NONE	1328.0	0
708.1416015625	0.2	COHERENT	1	n/a	0	1	0	RIGHT	1332.0	0
709.95166015625	0.2	RANDOM	0	n/a	0	1	0	NONE	1333.0	0
710.92138671875	0.2	COHERENT	1	n/a	0	1	180	LEFT	1338.0	0
712.94140625	0.2	COHERENT	1	0.624550815602561	0	0	180	LEFT	1339.0	1
714.39111328125	0.2	COHERENT	1	0.704349508552696	0	0	0	RIGHT	1343.0	1
715.880859375	0.2	RANDOM	0	0.604159013615572	0	0	0	NONE	1347.0	1
717.3310546875	0.2	RANDOM	0	0.729971394066524	0	0	0	NONE	1351.0	1
718.9609375	0.2	COHERENT	1	0.509687894380477	0	0	0	RIGHT	1354.0	1
720.20068359375	0.2	COHERENT	1	0.524516374989616	0	0	180	LEFT	1358.0	1
721.6103515625	0.2	COHERENT	1	0.549474501418445	0	0	0	RIGHT	1362.0	1
722.92041015625	0.2	RANDOM	0	0.699232315379049	0	0	0	NONE	1366.0	1
724.47021484375	0.2	RANDOM	0	1.16893891212749	0	0	0	NONE	1369.0	1
726.330078125	0.2	COHERENT	1	0.527926931561524	0	0	180	LEFT	1371.0	1
727.59033203125	0.2	RANDOM	0	0.505423717659141	0	0	0	NONE	1375.0	1
728.8701171875	0.2	RANDOM	0	0.763275860870635	0	0	0	NONE	1379.0	1
730.52001953125	0.2	COHERENT	1	0.654185742070695	0	0	0	RIGHT	1382.0	1
731.9697265625	0.2	RANDOM	0	0.659997784452571	0	0	0	NONE	1386.0	1
733.41943359375	0.2	RANDOM	0	0.649886249379051	0	0	0	NONE	1390.0	1
734.9794921875	0.2	COHERENT	1	0.63966333317876	0	0	180	LEFT	1393.0	1
736.439453125	0.2	RANDOM	0	0.544433373408538	0	0	0	NONE	1397.0	1
737.859375	0.2	RANDOM	0	0.614361404295778	0	0	0	NONE	1401.0	1
739.109375	0.2	RANDOM	0	0.533090307155362	0	0	0	NONE	1405.0	1
740.4091796875	0.2	RANDOM	0	0.6549430733794	0	0	0	NONE	1409.0	1
741.7490234375	0.2	RANDOM	0	1.19274942053016	0	0	0	NONE	1413.0	1
743.56884765625	0.2	COHERENT	1	0.533651438643574	0	0	0	RIGHT	1415.0	1
744.94873046875	0.2	COHERENT	1	0.849233115266543	0	0	0	RIGHT	1419.0	1
746.5986328125	0.2	COHERENT	1	0.729234588277905	0	0	0	RIGHT	1422.0	1
748.04833984375	0.2	RANDOM	0	0.544829395199486	0	0	0	NONE	1426.0	1
749.318359375	0.2	COHERENT	1	0.664844221868407	0	0	180	LEFT	1430.0	1
750.80810546875	0.2	RANDOM	0	0.514623074490373	0	0	0	NONE	1434.0	1
752.05810546875	0.2	RANDOM	0	0.604469009333116	0	0	0	NONE	1438.0	1
753.55810546875	0.2	COHERENT	1	0.629387292108731	0	0	0	RIGHT	1442.0	1
754.837890625	0.2	COHERENT	1	0.748681310822576	0	0	180	LEFT	1446.0	1
756.43798828125	0.2	COHERENT	1	0.588914891235618	0	0	180	LEFT	1449.0	1
757.8779296875	0.2	RANDOM	0	0.719722217276285	0	0	0	NONE	1453.0	1
759.49755859375	0.2	COHERENT	1	0.428467507346795	0	0	180	LEFT	1456.0	1
760.69775390625	0.2	RANDOM	0	0.714286576701852	0	0	0	NONE	1460.0	1
762.0576171875	0.2	COHERENT	1	0.678213277657051	0	0	0	RIGHT	1464.0	1
763.6171875	0.2	COHERENT	1	1.15481493980042	0	0	0	RIGHT	1467.0	1
765.4970703125	0.2	COHERENT	1	0.654708237281739	0	0	180	LEFT	1469.0	1
766.787109375	0.2	RANDOM	0	0.653664454235695	0	0	0	NONE	1473.0	1
768.3369140625	0.2	COHERENT	1	0.589457911970385	0	0	0	RIGHT	1476.0	1
769.6669921875	0.2	RANDOM	0	0.729240927041246	0	0	0	NONE	1480.0	1
771.28662109375	0.2	COHERENT	1	0.584970067455288	0	0	180	LEFT	1483.0	1
772.7666015625	0.2	COHERENT	1	0.629743470242829	0	0	0	RIGHT	1487.0	1
774.2763671875	0.2	RANDOM	0	0.474647210081457	0	0	0	NONE	1490.0	1
775.57666015625	0.2	RANDOM	0	n/a	0	1	0	NONE	1494.0	0
777.6064453125	0.2	COHERENT	1	0.659120318483474	0	0	0	RIGHT	1495.0	1
778.8759765625	0.2	RANDOM	0	0.589090867379127	0	0	0	NONE	1499.0	1
780.15625	0.2	RANDOM	0	0.697876121848822	0	0	0	NONE	1503.0	1
781.74609375	0.2	COHERENT	1	0.524663675776537	0	0	180	LEFT	1506.0	1
783.166015625	0.2	RANDOM	0	0.529471175079379	0	0	0	NONE	1510.0	1
784.36572265625	0.2	RANDOM	0	0.613385234726593	0	0	0	NONE	1514.0	1
789.91552734375	0.2	COHERENT	1	0.619375064332417	0	0	180	LEFT	1516.0	1
791.25537109375	0.2	COHERENT	1	0.654471288267814	0	0	0	RIGHT	1520.0	1
792.81494140625	0.2	RANDOM	0	0.559313167814253	0	0	0	NONE	1523.0	1
794.125	0.2	RANDOM	0	0.530144593230943	0	0	0	NONE	1527.0	1
795.28515625	0.2	COHERENT	1	0.592939100482909	0	0	0	RIGHT	1531.0	1
796.625	0.2	COHERENT	1	0.679587280093983	0	0	180	LEFT	1535.0	1
797.95458984375	0.2	COHERENT	1	0.568632357455499	0	0	180	LEFT	1539.0	1
799.20458984375	0.2	RANDOM	0	0.473428054581746	0	0	0	NONE	1543.0	1
800.49462890625	0.2	RANDOM	0	0.484399548557121	0	0	0	NONE	1547.0	1
801.87451171875	0.2	RANDOM	0	0.468967074350076	0	0	0	NONE	1551.0	1
803.01416015625	0.2	RANDOM	0	0.57892349082249	0	0	0	NONE	1555.0	1
804.4140625	0.2	RANDOM	0	0.594858538421249	0	0	0	NONE	1559.0	1
805.68408203125	0.2	RANDOM	0	0.573620360592031	0	0	0	NONE	1563.0	1
807.1337890625	0.2	COHERENT	1	0.734413056165067	0	0	0	RIGHT	1567.0	1
808.583984375	0.2	COHERENT	1	0.67393581971919	0	0	180	LEFT	1571.0	1
809.86376953125	0.2	COHERENT	1	0.679131492815941	0	0	0	RIGHT	1575.0	1
811.3134765625	0.2	RANDOM	0	0.534903797190054	0	0	0	NONE	1579.0	1
812.603515625	0.2	RANDOM	0	0.570837039747857	0	0	0	NONE	1583.0	1
814.0234375	0.2	RANDOM	0	0.589619701360789	0	0	0	NONE	1587.0	1
815.37353515625	0.2	COHERENT	1	0.599449614226614	0	0	0	RIGHT	1591.0	1
816.63330078125	0.2	RANDOM	0	0.543061182048405	0	0	0	NONE	1595.0	1
817.80322265625	0.2	COHERENT	1	0.593360477327224	0	0	0	RIGHT	1599.0	1
819.02294921875	0.2	COHERENT	1	n/a	0	1	0	RIGHT	1603.0	0
n/a	0.2	RANDOM	0	1.02252645603949	1	0	0	NONE	n/a	1
n/a	0.2	COHERENT	1	0.624430379099067	1	0	180	LEFT	n/a	1
823.54296875	0.2	COHERENT	1	0.459403389548243	0	0	0	RIGHT	1606.0	1
824.62255859375	0.2	COHERENT	1	0.633134104991768	0	0	0	RIGHT	1610.0	1
826.03271484375	0.2	RANDOM	0	0.655659655491036	0	0	0	NONE	1614.0	1
827.51220703125	0.2	RANDOM	0	0.603833623757964	0	0	0	NONE	1618.0	1
828.76220703125	0.2	RANDOM	0	0.568623302078777	0	0	0	NONE	1622.0	1
830.2021484375	0.2	COHERENT	1	0.470159969259839	0	0	0	RIGHT	1626.0	1
831.33203125	0.2	RANDOM	0	0.942350757588429	0	0	0	NONE	1630.0	1
833.10205078125	0.2	RANDOM	0	0.623717117287015	0	0	0	NONE	1633.0	1
834.6318359375	0.2	RANDOM	0	0.649900737982534	0	0	0	NONE	1636.0	1
835.931640625	0.2	COHERENT	1	0.688669822564407	0	0	180	LEFT	1640.0	1
n/a	0.2	RANDOM	0	0.583504002021073	1	0	0	NONE	n/a	1
n/a	0.2	COHERENT	1	0.549265624071268	1	0	180	LEFT	n/a	1
840.00146484375	0.2	COHERENT	1	0.504026774935483	0	0	0	RIGHT	1644.0	1
841.29150390625	0.2	RANDOM	0	0.585072996898816	0	0	0	NONE	1648.0	1
842.72119140625	0.2	COHERENT	1	0.459879400499631	0	0	0	RIGHT	1652.0	1
844.01123046875	0.2	COHERENT	1	0.484380834113836	0	0	180	LEFT	1656.0	1
845.2412109375	0.2	RANDOM	0	0.789579616226547	0	0	0	NONE	1660.0	1
846.68115234375	0.2	RANDOM	0	0.658302014307992	0	0	0	NONE	1664.0	1
848.19091796875	0.2	COHERENT	1	0.529179591958382	0	0	0	RIGHT	1667.0	1
849.33056640625	0.2	RANDOM	0	0.547937804054527	0	0	0	NONE	1671.0	1
850.66064453125	0.2	RANDOM	0	0.989828699446662	0	0	0	NONE	1675.0	1
852.53076171875	0.2	RANDOM	0	0.574663841791335	0	0	0	NONE	1677.0	1
853.88037109375	0.2	COHERENT	1	0.554393683694798	0	0	0	RIGHT	1681.0	1
855.22021484375	0.2	COHERENT	1	0.674319465830195	0	0	180	LEFT	1685.0	1
856.5302734375	0.2	RANDOM	0	0.598107305606391	0	0	0	NONE	1689.0	1
857.919921875	0.2	RANDOM	0	0.624945931856928	0	0	0	NONE	1693.0	1
859.43994140625	0.2	COHERENT	1	0.519660278499941	0	0	180	LEFT	1696.0	1
860.69970703125	0.2	RANDOM	0	0.699617772563215	0	0	0	NONE	1700.0	1
862.259765625	0.2	COHERENT	1	0.6193895529359	0	0	180	LEFT	1703.0	1
863.51953125	0.2	COHERENT	1	0.588212495877087	0	0	0	RIGHT	1707.0	1
864.73974609375	0.2	COHERENT	1	0.542971533821401	0	0	180	LEFT	1711.0	1
866.00927734375	0.2	COHERENT	1	0.485005353239103	0	0	0	RIGHT	1715.0	1
867.08935546875	0.2	RANDOM	0	0.507593385831569	0	0	0	NONE	1719.0	1
868.4091796875	0.2	COHERENT	1	0.529594630039355	0	0	180	LEFT	1723.0	1
869.59912109375	0.2	COHERENT	1	0.498423006210942	0	0	180	LEFT	1727.0	1
870.708984375	0.2	COHERENT	1	0.583329535103985	0	0	0	RIGHT	1731.0	1
871.9990234375	0.2	COHERENT	1	0.518099433465977	0	0	180	LEFT	1735.0	1
873.298828125	0.2	RANDOM	0	0.635427529970912	0	0	0	NONE	1739.0	1
874.798828125	0.2	COHERENT	1	0.553775201489771	0	0	0	RIGHT	1743.0	1
876.228515625	0.2	COHERENT	1	0.50460813009704	0	0	180	LEFT	1747.0	1
877.61865234375	0.2	COHERENT	1	0.524422500919172	0	0	0	RIGHT	1751.0	1
878.83837890625	0.2	RANDOM	0	0.538311335309118	0	0	0	NONE	1755.0	1
880.04833984375	0.2	COHERENT	1	0.573164271467249	0	0	0	RIGHT	1759.0	1
881.408203125	0.2	RANDOM	0	0.644038287337025	0	0	0	NONE	1763.0	1
882.9580078125	0.2	RANDOM	0	0.659688090581767	0	0	0	NONE	1766.0	1
884.30810546875	0.2	RANDOM	0	1.03851432666124	0	0	0	NONE	1770.0	1
886.23779296875	0.2	RANDOM	0	0.559136889820365	0	0	0	NONE	1772.0	1
887.65771484375	0.2	COHERENT	1	1.03011818171581	0	0	0	RIGHT	1776.0	1
889.3974609375	0.2	COHERENT	1	0.757868593813328	0	0	0	RIGHT	1778.0	1
890.87744140625	0.2	RANDOM	0	0.644727401479031	0	0	0	NONE	1782.0	1
892.3974609375	0.2	RANDOM	0	0.84454031740097	0	0	0	NONE	1785.0	1
894.017578125	0.2	RANDOM	0	0.524351567139092	0	0	0	NONE	1788.0	1
895.3173828125	0.2	COHERENT	1	0.494129852286278	0	0	180	LEFT	1792.0	1
896.4970703125	0.2	RANDOM	0	0.558041189284268	0	0	0	NONE	1796.0	1
897.71728515625	0.2	COHERENT	1	0.707817415845057	0	0	0	RIGHT	1800.0	1
899.09716796875	0.2	COHERENT	1	n/a	0	1	0	RIGHT	1804.0	0
901.20654296875	0.2	RANDOM	0	0.620107040584116	0	0	0	NONE	1805.0	1
902.41650390625	0.2	RANDOM	0	0.628327209382405	0	0	0	NONE	1809.0	1
903.8564453125	0.2	RANDOM	0	0.849065892653016	0	0	0	NONE	1813.0	1
905.306640625	0.2	RANDOM	0	0.637848635760747	0	0	0	NONE	1817.0	1
906.62646484375	0.2	RANDOM	0	0.623782315997232	0	0	0	NONE	1821.0	1
908.0361328125	0.2	COHERENT	1	0.489617256407655	0	0	0	RIGHT	1825.0	1
909.1962890625	0.2	RANDOM	0	0.578418804518151	0	0	0	NONE	1829.0	1
910.59619140625	0.2	COHERENT	1	0.6641605409568	0	0	0	RIGHT	1833.0	1
912.11572265625	0.2	RANDOM	0	0.569913693208946	0	0	0	NONE	1836.0	1
913.2958984375	0.2	COHERENT	1	0.603839056984725	0	0	180	LEFT	1840.0	1
914.7958984375	0.2	RANDOM	0	0.539355420198262	0	0	0	NONE	1844.0	1
916.015625	0.2	RANDOM	0	0.583526036771218	0	0	0	NONE	1848.0	1
917.49560546875	0.2	RANDOM	0	0.47934785594407	0	0	0	NONE	1852.0	1
918.615234375	0.2	COHERENT	1	0.633134708681609	0	0	0	RIGHT	1856.0	1
920.10546875	0.2	COHERENT	1	0.590023269298399	0	0	180	LEFT	1860.0	1
921.28515625	0.2	COHERENT	1	1.00777947381721	0	0	0	RIGHT	1864.0	1
923.06494140625	0.2	COHERENT	1	0.824256576241169	0	0	180	LEFT	1866.0	1
924.48486328125	0.2	COHERENT	1	0.618401309529872	0	0	180	LEFT	1870.0	1
925.884765625	0.2	COHERENT	1	1.08413984036451	0	0	180	LEFT	1874.0	1
927.6748046875	0.2	RANDOM	0	0.708030820878776	0	0	0	NONE	1876.0	1
929.24462890625	0.2	COHERENT	1	0.66881077855578	0	0	180	LEFT	1879.0	1
930.654296875	0.2	RANDOM	0	0.589574726323917	0	0	0	NONE	1883.0	1
932.12451171875	0.2	COHERENT	1	0.524513054682757	0	0	180	LEFT	1887.0	1
933.2744140625	0.2	RANDOM	0	0.633324569738761	0	0	0	NONE	1891.0	1
934.71435546875	0.2	COHERENT	1	0.469155124330427	0	0	180	LEFT	1895.0	1
935.994140625	0.2	COHERENT	1	0.964988292907947	0	0	0	RIGHT	1899.0	1
937.56396484375	0.2	COHERENT	1	1.0877743665842	0	0	0	RIGHT	1902.0	1
939.39404296875	0.2	RANDOM	0	0.609330237199174	0	0	0	NONE	1904.0	1
940.68359375	0.2	RANDOM	0	n/a	0	1	0	NONE	1908.0	0
n/a	0.2	COHERENT	1	1.02379934010605	1	0	0	RIGHT	n/a	1
n/a	0.2	COHERENT	1	0.624347673325246	1	0	180	LEFT	n/a	1
945.6533203125	0.2	COHERENT	1	0.692435651741107	0	0	180	LEFT	1911.0	1
947.123046875	0.2	RANDOM	0	0.834564914825023	0	0	0	NONE	1915.0	1
948.703125	0.2	COHERENT	1	0.59936207892315	0	0	180	LEFT	1918.0	1
949.94287109375	0.2	COHERENT	1	0.713112094392272	0	0	0	RIGHT	1922.0	1
951.2529296875	0.2	RANDOM	0	0.628045285335247	0	0	0	NONE	1926.0	1
952.77294921875	0.2	RANDOM	0	0.77982154268102	0	0	0	NONE	1929.0	1
954.41259765625	0.2	RANDOM	0	0.57933158645028	0	0	0	NONE	1932.0	1
955.86279296875	0.2	RANDOM	0	0.714367169552133	0	0	0	NONE	1936.0	1
957.232421875	0.2	RANDOM	0	0.548258968068694	0	0	0	NONE	1940.0	1
958.5322265625	0.2	COHERENT	1	0.55905327851724	0	0	180	LEFT	1944.0	1
959.8623046875	0.2	RANDOM	0	0.55495451333627	0	0	0	NONE	1948.0	1
961.15234375	0.2	RANDOM	0	0.834665429501911	0	0	0	NONE	1952.0	1
962.8818359375	0.2	COHERENT	1	1.08849366531285	0	0	180	LEFT	1955.0	1
964.70166015625	0.2	RANDOM	0	0.814271514595021	0	0	0	NONE	1957.0	1
966.181640625	0.2	COHERENT	1	0.473073083830968	0	0	0	RIGHT	1961.0	1
967.54150390625	0.2	COHERENT	1	0.534950281456986	0	0	180	LEFT	1965.0	1
968.94140625	0.2	COHERENT	1	0.534837089253415	0	0	180	LEFT	1969.0	1
970.3515625	0.2	COHERENT	1	0.544628063998971	0	0	180	LEFT	1973.0	1
971.5712890625	0.2	COHERENT	1	0.503524503394146	0	0	180	LEFT	1977.0	1
972.71142578125	0.2	RANDOM	0	0.723210650088731	0	0	0	NONE	1981.0	1
974.2109375	0.2	RANDOM	0	0.814061128017784	0	0	0	NONE	1985.0	1
975.78125	0.2	RANDOM	0	0.839866837672162	0	0	0	NONE	1988.0	1
977.31103515625	0.2	COHERENT	1	0.618718247700599	0	0	180	LEFT	1991.0	1
978.630859375	0.2	RANDOM	0	0.768410561104247	0	0	0	NONE	1995.0	1
980.15087890625	0.2	RANDOM	0	0.761032542304747	0	0	0	NONE	1998.0	1
981.560546875	0.2	RANDOM	0	1.06841457565679	0	0	0	NONE	2002.0	1
983.38037109375	0.2	RANDOM	0	0.707840356128145	0	0	0	NONE	2004.0	1
984.92041015625	0.2	RANDOM	0	0.724709314872598	0	0	0	NONE	2007.0	1
986.52001953125	0.2	RANDOM	0	0.473387305388314	0	0	0	NONE	2010.0	1
987.740234375	0.2	COHERENT	1	0.510700889146392	0	0	0	RIGHT	2014.0	1
988.89990234375	0.2	COHERENT	1	0.508094751836325	0	0	180	LEFT	2018.0	1
990.18994140625	0.2	RANDOM	0	0.564033131809992	0	0	0	NONE	2022.0	1
991.61962890625	0.2	COHERENT	1	0.564944102672598	0	0	0	RIGHT	2026.0	1
992.81982421875	0.2	RANDOM	0	0.532781820667878	0	0	0	NONE	2030.0	1
994.16943359375	0.2	COHERENT	1	0.594505076896894	0	0	0	RIGHT	2034.0	1
995.48974609375	0.2	COHERENT	1	0.524318062245584	0	0	180	LEFT	2038.0	1
996.83935546875	0.2	COHERENT	1	0.634110576407693	0	0	0	RIGHT	2042.0	1
998.279296875	0.2	COHERENT	1	0.520000760654511	0	0	180	LEFT	2046.0	1
