COND	DIREC	ACC	RT	nameCOND	nameDIREC	outliers	bad_trials
0	0	1	0.739899268875888	RANDOM	NONE	0	0
1	0	1	0.494855383887625	COHERENT	RIGHT	0	0
1	180	1	0.51866990967028	COHERENT	LEFT	0	0
0	0	1	0.52357606962687	RANDOM	NONE	0	0
1	180	1	0.564378634571767	COHERENT	LEFT	0	0
0	0	1	0.499165705296036	RANDOM	NONE	0	0
1	0	1	0.567973587509186	COHERENT	RIGHT	0	0
0	0	1	0.474885133557109	RANDOM	NONE	0	0
0	0	1	0.56451144559469	RANDOM	NONE	0	0
0	0	1	0.608618590285914	RANDOM	NONE	0	0
0	0	1	0.739380702198105	RANDOM	NONE	0	0
0	0	1	0.759149321245786	RANDOM	NONE	0	0
0	0	1	0.647938803096622	RANDOM	NONE	0	0
1	0	1	0.532855938068678	COHERENT	RIGHT	0	0
1	180	0	NaN	COHERENT	LEFT	1	0
1	180	0	NaN	COHERENT	LEFT	1	0
1	180	0	NaN	COHERENT	LEFT	1	0
1	180	0	NaN	COHERENT	LEFT	1	0
0	0	1	0.692633334721904	RANDOM	NONE	0	0
1	0	1	0.769630525766843	COHERENT	RIGHT	0	0
1	180	1	0.734410551474866	COHERENT	LEFT	0	0
1	180	1	0.914083945019229	COHERENT	LEFT	0	0
0	0	1	0.758970931892691	RANDOM	NONE	0	0
0	0	1	0.777882919839612	RANDOM	NONE	0	0
0	0	1	0.768680625107663	RANDOM	NONE	0	0
0	0	1	0.778565387394337	RANDOM	NONE	0	0
1	0	1	0.714418266587018	COHERENT	RIGHT	0	0
0	0	1	0.758123657928081	RANDOM	NONE	0	0
1	0	1	0.837940366644034	COHERENT	RIGHT	0	0
0	0	1	0.814791707038239	RANDOM	NONE	0	0
1	180	1	0.834643936665088	COHERENT	LEFT	0	0
0	0	1	0.734329959330353	RANDOM	NONE	0	0
0	0	1	0.868149441379501	RANDOM	NONE	0	0
0	0	1	0.729920029651112	RANDOM	NONE	0	0
1	180	1	0.740850980597315	COHERENT	LEFT	0	0
1	0	1	0.68948692082995	COHERENT	RIGHT	0	0
1	0	1	0.709385634312639	COHERENT	RIGHT	0	0
0	0	1	0.73407218520515	RANDOM	NONE	0	0
0	0	1	0.983909944465267	RANDOM	NONE	0	0
1	0	1	0.828673779302335	COHERENT	RIGHT	0	0
1	180	1	0.804422788198281	COHERENT	LEFT	0	0
0	0	1	0.68437037613694	RANDOM	NONE	0	0
0	0	1	0.749052363160445	RANDOM	NONE	0	0
0	0	1	0.857875905003311	RANDOM	NONE	0	0
1	180	1	0.753835069233901	COHERENT	LEFT	0	0
1	180	1	0.783453134914453	COHERENT	LEFT	0	0
0	0	1	0.584311758182594	RANDOM	NONE	0	0
0	0	1	0.689032948605018	RANDOM	NONE	0	0
1	180	1	0.634957129204849	COHERENT	LEFT	0	0
0	0	1	0.594877780655224	RANDOM	NONE	0	0
1	0	1	0.653547352263558	COHERENT	RIGHT	0	0
0	0	1	0.744397940463386	RANDOM	NONE	0	0
1	0	1	0.648309768432227	COHERENT	RIGHT	0	0
1	0	1	0.803976965737093	COHERENT	RIGHT	0	0
1	180	1	0.88785557887968	COHERENT	LEFT	0	0
1	0	1	0.784647528598725	COHERENT	RIGHT	0	0
0	0	1	0.658427855545597	RANDOM	NONE	0	0
1	0	1	0.71921214086251	COHERENT	RIGHT	0	0
0	0	1	0.693989214538306	RANDOM	NONE	0	0
1	180	1	0.782835563652043	COHERENT	LEFT	0	0
1	0	1	0.76468331513388	COHERENT	RIGHT	0	0
0	0	1	0.644928822344809	RANDOM	NONE	0	1
0	0	1	1.00319772724106	RANDOM	NONE	0	1
0	0	1	0.823745282941672	RANDOM	NONE	0	0
1	0	1	0.633903394467779	COHERENT	RIGHT	0	0
0	0	1	0.699494231474091	RANDOM	NONE	0	0
0	0	1	0.73848151119455	RANDOM	NONE	0	0
0	0	1	0.644367393928405	RANDOM	NONE	0	0
0	0	1	0.708964563000336	RANDOM	NONE	0	0
0	0	1	0.74492435506545	RANDOM	NONE	0	0
0	0	1	0.69468315213453	RANDOM	NONE	0	0
0	0	1	0.643666513933567	RANDOM	NONE	0	0
0	0	1	0.647420840101404	RANDOM	NONE	0	0
1	180	1	0.689182964692009	COHERENT	LEFT	0	0
0	0	1	0.52808470204036	RANDOM	NONE	0	0
0	0	1	0.688863614548609	RANDOM	NONE	0	0
0	0	1	0.713420071002474	RANDOM	NONE	0	0
0	0	1	0.908419253009924	RANDOM	NONE	0	0
0	0	1	0.609360520957125	RANDOM	NONE	0	0
0	0	1	0.579125789547106	RANDOM	NONE	0	0
1	0	1	0.709925028178986	COHERENT	RIGHT	0	0
1	0	1	0.588805902123568	COHERENT	RIGHT	0	0
0	0	1	0.569609879690688	RANDOM	NONE	0	0
1	180	1	0.799341861009452	COHERENT	LEFT	0	0
0	0	1	0.528013467039273	RANDOM	NONE	0	0
1	180	1	0.962968362604443	COHERENT	LEFT	0	0
0	0	1	0.574474687124166	RANDOM	NONE	0	0
1	180	1	0.61864008755947	COHERENT	LEFT	0	0
1	180	1	0.694555472447973	COHERENT	LEFT	0	0
1	180	1	0.908241467343032	COHERENT	LEFT	0	0
1	0	1	0.653123262512963	COHERENT	RIGHT	0	0
0	0	1	0.609932513889362	RANDOM	NONE	0	0
1	0	1	0.642550901335198	COHERENT	RIGHT	0	0
1	180	1	0.579617794021033	COHERENT	LEFT	0	0
0	0	1	0.573432724275335	RANDOM	NONE	0	0
1	0	0	NaN	COHERENT	RIGHT	1	0
1	180	1	0.515102122619282	COHERENT	LEFT	0	0
0	0	1	0.613527466826781	RANDOM	NONE	0	0
0	0	1	0.722626289702021	RANDOM	NONE	0	0
0	0	1	0.648449521850125	RANDOM	NONE	0	0
1	0	1	0.684378827747423	COHERENT	RIGHT	0	0
0	0	1	0.604916181153385	RANDOM	NONE	0	0
1	180	1	0.633921806904254	COHERENT	LEFT	0	0
0	0	1	0.544886202082125	RANDOM	NONE	0	0
0	0	1	0.714386874889897	RANDOM	NONE	0	0
1	180	1	0.663420342665631	COHERENT	LEFT	0	0
1	180	1	0.624207887889497	COHERENT	LEFT	0	0
0	0	1	0.509106912271818	RANDOM	NONE	0	0
1	0	1	0.682850293604133	COHERENT	RIGHT	0	0
1	0	1	0.673682107153581	COHERENT	RIGHT	0	0
1	180	1	0.669450264987972	COHERENT	LEFT	0	0
0	0	1	0.648353837543254	RANDOM	NONE	0	0
0	0	1	0.624169855640503	RANDOM	NONE	0	0
1	0	1	0.898948317797476	COHERENT	RIGHT	0	0
1	0	1	0.647834969022369	COHERENT	RIGHT	0	0
0	0	1	0.569607464942237	RANDOM	NONE	0	0
0	0	1	0.648397604814818	RANDOM	NONE	0	0
0	0	1	0.713370266872516	RANDOM	NONE	0	0
0	0	1	0.544088732251112	RANDOM	NONE	0	0
0	0	1	0.64991285785436	RANDOM	NONE	0	0
1	0	1	0.544653179105808	COHERENT	RIGHT	0	1
0	0	1	0.589205542564741	RANDOM	NONE	0	1
0	0	1	0.554347780151147	RANDOM	NONE	0	1
1	0	1	0.673967349015584	COHERENT	RIGHT	0	1
1	180	1	0.648009132568404	COHERENT	LEFT	0	0
1	180	1	0.557882968132617	COHERENT	LEFT	0	0
1	0	1	0.604590190454473	COHERENT	RIGHT	0	0
1	180	1	0.604467038418079	COHERENT	LEFT	0	0
1	180	1	0.559331513824873	COHERENT	LEFT	0	0
1	0	1	0.624042175950308	COHERENT	RIGHT	0	0
1	180	1	0.644881131116563	COHERENT	LEFT	0	0
1	0	1	0.588791111804312	COHERENT	RIGHT	0	0
1	180	1	0.714616879435198	COHERENT	LEFT	0	0
0	0	1	0.539404427076079	RANDOM	NONE	0	0
1	0	1	0.749191512895777	COHERENT	RIGHT	0	0
0	0	1	0.614999556291878	RANDOM	NONE	0	0
0	0	1	0.894836911080347	RANDOM	NONE	0	0
0	0	1	0.689596791766235	RANDOM	NONE	0	0
0	0	1	0.668199124775128	RANDOM	NONE	0	0
1	0	1	0.598746203566407	COHERENT	RIGHT	0	0
1	0	1	0.692899258610851	COHERENT	RIGHT	0	0
0	0	1	0.549937850479182	RANDOM	NONE	0	0
1	0	1	0.679684259899659	COHERENT	RIGHT	0	0
1	180	1	0.658627072076342	COHERENT	LEFT	0	0
1	0	1	0.719380871229077	COHERENT	RIGHT	0	0
1	180	1	0.788164907826285	COHERENT	LEFT	0	0
1	180	1	0.82991918449261	COHERENT	LEFT	0	0
1	0	1	0.617817564743746	COHERENT	RIGHT	0	0
1	0	1	0.664639185648412	COHERENT	RIGHT	0	0
0	0	1	0.599453120423277	RANDOM	NONE	0	0
1	180	1	0.639193499020621	COHERENT	LEFT	0	0
1	0	1	0.710385037269589	COHERENT	RIGHT	0	0
1	0	1	0.609006458842487	COHERENT	RIGHT	0	0
0	0	1	0.52988066929538	RANDOM	NONE	0	0
0	0	1	0.505057987105829	RANDOM	NONE	0	0
0	0	1	0.553469416339794	RANDOM	NONE	0	0
0	0	1	0.808417381580512	RANDOM	NONE	0	0
0	0	1	0.5380917108414	RANDOM	NONE	0	0
1	0	1	0.534964313075761	COHERENT	RIGHT	0	0
1	180	1	0.597927906554105	COHERENT	LEFT	0	0
1	0	1	0.599113244941691	COHERENT	RIGHT	0	0
0	0	1	0.547602791204554	RANDOM	NONE	0	0
0	0	1	0.649432323425572	RANDOM	NONE	0	0
0	0	1	0.584165967899025	RANDOM	NONE	0	0
1	0	1	0.636537882230186	COHERENT	RIGHT	0	0
0	0	1	0.606712450247869	RANDOM	NONE	0	0
1	0	1	0.649606185132143	COHERENT	RIGHT	0	0
0	0	1	0.589393892743828	RANDOM	NONE	0	0
0	0	1	0.564074678430188	RANDOM	NONE	0	0
0	0	1	0.604122333439591	RANDOM	NONE	0	0
0	0	1	0.619861345290701	RANDOM	NONE	0	0
1	0	1	0.628678488057631	COHERENT	RIGHT	0	0
1	180	1	0.853593956853729	COHERENT	LEFT	0	0
1	0	1	0.46940848988379	COHERENT	RIGHT	0	0
0	0	1	0.528051499284629	RANDOM	NONE	0	0
0	0	1	0.488118846547877	RANDOM	NONE	0	0
1	180	1	0.587870791780006	COHERENT	LEFT	0	0
0	0	1	0.564693758908106	RANDOM	NONE	0	0
1	0	1	0.619586969791271	COHERENT	RIGHT	0	0
1	180	1	0.454408993962716	COHERENT	LEFT	0	0
0	0	1	0.503368872356077	RANDOM	NONE	0	0
0	0	1	0.424138343205414	RANDOM	NONE	0	0
1	0	1	0.717902141212107	COHERENT	RIGHT	0	0
1	0	1	0.594442824552971	COHERENT	RIGHT	0	0
0	0	1	0.499227885004075	RANDOM	NONE	0	0
1	0	1	0.563429035748413	COHERENT	RIGHT	0	0
1	180	1	0.489210915377043	COHERENT	LEFT	0	0
1	0	1	0.614736650830309	COHERENT	RIGHT	0	0
1	0	1	0.563900816727255	COHERENT	RIGHT	0	0
0	0	1	0.549677359762427	RANDOM	NONE	0	0
0	0	1	0.514602270224714	RANDOM	NONE	0	0
1	180	1	0.554362872313504	COHERENT	LEFT	0	0
1	180	1	0.548352267960581	COHERENT	LEFT	0	0
0	0	1	0.569087087205844	RANDOM	NONE	0	0
1	180	1	0.56382958172253	COHERENT	LEFT	0	0
1	180	1	0.504674344349041	COHERENT	LEFT	0	0
0	0	1	0.62945724360543	RANDOM	NONE	0	0
0	0	1	0.528370849428029	RANDOM	NONE	0	0
0	0	1	0.58904948961208	RANDOM	NONE	0	0
1	0	1	0.442959174495627	COHERENT	RIGHT	0	0
0	0	1	0.604696137430437	RANDOM	NONE	0	0
0	0	1	0.558684965610155	RANDOM	NONE	0	0
0	0	1	0.419590471170523	RANDOM	NONE	0	0
1	180	1	0.489166544419277	COHERENT	LEFT	0	0
1	180	1	0.447968564836629	COHERENT	LEFT	0	0
0	0	1	0.555054395168554	RANDOM	NONE	0	0
0	0	1	0.554843406745931	RANDOM	NONE	0	0
0	0	1	0.548656827781087	RANDOM	NONE	0	0
1	180	0	NaN	COHERENT	LEFT	1	0
1	0	1	0.624336774948461	COHERENT	RIGHT	0	0
0	0	1	0.614169487391337	RANDOM	NONE	0	0
0	0	1	0.537943203969917	RANDOM	NONE	0	0
0	0	1	0.602851875264605	RANDOM	NONE	0	0
0	0	1	0.503672526650917	RANDOM	NONE	0	0
1	180	1	0.509452220929234	COHERENT	LEFT	0	0
1	0	1	0.539315081474342	COHERENT	RIGHT	0	0
1	0	1	0.519179421055014	COHERENT	RIGHT	0	0
0	0	1	0.583791682289302	RANDOM	NONE	0	0
1	0	1	0.723898860785994	COHERENT	RIGHT	0	0
1	180	1	0.517537997533509	COHERENT	LEFT	0	0
1	180	1	0.474302576112677	COHERENT	LEFT	0	0
1	180	1	0.448388126937061	COHERENT	LEFT	0	0
0	0	1	0.549077295414463	RANDOM	NONE	0	0
0	0	1	0.569889990216325	RANDOM	NONE	0	0
0	0	1	0.51757753900165	RANDOM	NONE	0	0
0	0	1	0.494605457690341	RANDOM	NONE	0	0
1	0	1	0.554301296295307	COHERENT	RIGHT	0	0
1	0	1	0.517356287906296	COHERENT	RIGHT	0	0
1	180	1	0.544140649290057	COHERENT	LEFT	0	0
1	180	1	0.424964186302532	COHERENT	LEFT	0	0
1	180	1	0.468831063775724	COHERENT	LEFT	0	0
0	0	1	0.467699453482055	RANDOM	NONE	0	0
0	0	1	0.463473044492275	RANDOM	NONE	0	0
0	0	1	0.479399500993168	RANDOM	NONE	0	0
0	0	1	0.538206109427847	RANDOM	NONE	0	0
0	0	1	0.478120591200422	RANDOM	NONE	0	0
1	0	1	0.788887520531716	COHERENT	RIGHT	0	0
0	0	1	0.664678727116552	RANDOM	NONE	0	0
1	0	1	0.558449527885386	COHERENT	RIGHT	0	0
0	0	1	0.614426657826698	RANDOM	NONE	0	0
1	0	1	0.449188615195453	COHERENT	RIGHT	0	0
1	0	1	0.577993877413974	COHERENT	RIGHT	0	0
0	0	1	0.563879084013024	RANDOM	NONE	0	0
1	0	1	0.554797224733193	COHERENT	RIGHT	0	0
0	0	1	0.589574998684839	RANDOM	NONE	0	0
0	0	1	0.549403889792302	RANDOM	NONE	0	0
1	180	1	0.47908830061715	COHERENT	LEFT	0	0
0	0	1	0.503971049613028	RANDOM	NONE	0	0
0	0	1	0.563780381275137	RANDOM	NONE	0	0
1	0	1	0.598798120601714	COHERENT	RIGHT	0	0
0	0	1	0.548599477569951	RANDOM	NONE	0	0
0	0	1	0.444012003703392	RANDOM	NONE	0	0
1	180	1	0.408330209254927	COHERENT	LEFT	0	0
0	0	1	0.532756933491328	RANDOM	NONE	0	0
0	0	1	0.493954381825461	RANDOM	NONE	0	0
1	180	1	0.50068156202542	COHERENT	LEFT	0	0
0	0	1	0.479776201351342	RANDOM	NONE	0	0
0	0	1	0.544930573039892	RANDOM	NONE	0	0
1	180	1	0.648094856049283	COHERENT	LEFT	0	0
0	0	1	0.489124588209961	RANDOM	NONE	0	0
0	0	1	0.749887563393713	RANDOM	NONE	0	0
1	0	1	0.524385009499383	COHERENT	RIGHT	0	0
1	0	1	0.538433699228335	COHERENT	RIGHT	0	0
0	0	1	0.579452383928583	RANDOM	NONE	0	0
1	180	1	0.623946189803974	COHERENT	LEFT	0	0
1	0	1	0.854935046354512	COHERENT	RIGHT	0	0
0	0	1	0.61785891726322	RANDOM	NONE	0	0
1	0	1	0.68866711460214	COHERENT	RIGHT	0	0
0	0	1	0.5394979984776	RANDOM	NONE	0	0
1	180	1	0.678428893883392	COHERENT	LEFT	0	0
1	0	1	0.579193704274076	COHERENT	RIGHT	0	0
1	0	0	NaN	COHERENT	RIGHT	1	0
1	0	1	0.940870419304701	COHERENT	RIGHT	0	0
1	180	1	0.612670835726021	COHERENT	LEFT	0	0
0	0	1	0.673407127967948	RANDOM	NONE	0	0
1	180	1	0.609178207643708	COHERENT	LEFT	0	0
1	180	1	0.84299141135125	COHERENT	LEFT	0	0
0	0	1	0.984826340529253	RANDOM	NONE	0	0
0	0	0	NaN	RANDOM	NONE	1	0
1	180	1	0.614700127800461	COHERENT	LEFT	0	0
1	180	1	0.624361526093708	COHERENT	LEFT	0	0
1	180	1	0.579196119018889	COHERENT	LEFT	0	0
0	0	1	0.640422302833031	RANDOM	NONE	0	0
0	0	1	0.588672487410804	RANDOM	NONE	0	0
1	180	1	0.609452884989878	COHERENT	LEFT	0	0
0	0	1	0.624336171265895	RANDOM	NONE	0	0
1	0	1	0.734126516988908	COHERENT	RIGHT	0	0
1	180	1	0.782906496813666	COHERENT	LEFT	0	0
0	0	1	0.627805859261571	RANDOM	NONE	0	0
1	0	1	0.689589245688694	COHERENT	RIGHT	0	0
1	180	1	0.544759427921235	COHERENT	LEFT	0	0
0	0	1	0.578146006402676	RANDOM	NONE	0	0
0	0	1	0.917919467017782	RANDOM	NONE	0	0
1	180	1	0.914842175228841	COHERENT	LEFT	0	0
1	0	1	0.569583317486831	COHERENT	RIGHT	0	0
0	0	1	0.65937473777376	RANDOM	NONE	0	0
0	0	1	0.589145173918951	RANDOM	NONE	0	0
1	180	1	0.68504046812086	COHERENT	LEFT	0	0
0	0	1	0.55787210177732	RANDOM	NONE	0	0
1	0	1	0.47365421683935	COHERENT	RIGHT	0	0
1	0	1	0.679618458078039	COHERENT	RIGHT	0	0
0	0	1	0.578802213596646	RANDOM	NONE	0	0
1	180	1	0.489331350825523	COHERENT	LEFT	0	0
0	0	1	0.568425748675509	RANDOM	NONE	0	0
0	0	1	0.574193067386659	RANDOM	NONE	0	0
1	0	1	0.548927279323834	COHERENT	RIGHT	0	0
0	0	1	0.934825404816365	RANDOM	NONE	0	0
0	0	1	0.569621047889086	RANDOM	NONE	0	0
0	0	1	0.618566437809932	RANDOM	NONE	0	0
0	0	1	0.53935552846815	RANDOM	NONE	0	0
0	0	1	0.593194702771143	RANDOM	NONE	0	0
0	0	1	0.654927983225207	RANDOM	NONE	0	0
0	0	1	0.537842086483579	RANDOM	NONE	0	0
1	0	1	0.629603939418303	COHERENT	RIGHT	0	0
1	0	1	0.639401770855329	COHERENT	RIGHT	0	0
0	0	1	0.529295998945599	RANDOM	NONE	0	0
1	0	1	0.619176161144424	COHERENT	RIGHT	0	0
1	180	1	0.574880364434648	COHERENT	LEFT	0	0
0	0	1	0.480401318691293	RANDOM	NONE	0	0
1	0	1	0.498475691660133	COHERENT	RIGHT	0	0
0	0	1	0.524410968017037	RANDOM	NONE	0	0
0	0	1	0.564168853521551	RANDOM	NONE	0	0
0	0	1	0.752996548722876	RANDOM	NONE	0	0
1	0	1	0.649842226543115	COHERENT	RIGHT	0	0
1	0	1	0.547811364882364	COHERENT	RIGHT	0	0
1	180	1	0.693451329891104	COHERENT	LEFT	0	0
0	0	1	0.559363509204559	RANDOM	NONE	0	0
0	0	1	0.555127441235527	RANDOM	NONE	0	0
1	0	1	0.754961548191204	COHERENT	RIGHT	0	0
0	0	1	0.544811948646384	RANDOM	NONE	0	0
0	0	1	0.63862633557801	RANDOM	NONE	0	0
0	0	1	0.658410348634789	RANDOM	NONE	0	0
1	180	1	0.64922163684605	COHERENT	LEFT	0	0
0	0	1	0.553006086971436	RANDOM	NONE	0	0
1	0	1	0.599943917528435	COHERENT	RIGHT	0	0
1	180	1	0.624815196479176	COHERENT	LEFT	0	0
0	0	1	0.622622003527795	RANDOM	NONE	0	0
0	0	1	0.589415625458059	RANDOM	NONE	0	0
0	0	1	0.55816609708927	RANDOM	NONE	0	0
1	180	1	0.480113360245014	COHERENT	LEFT	0	0
0	0	1	0.494900056688493	RANDOM	NONE	0	0
1	180	1	0.679669469584042	COHERENT	LEFT	0	0
1	180	1	0.474570914750075	COHERENT	LEFT	0	0
1	0	1	0.648394586380164	COHERENT	RIGHT	0	0
1	180	1	0.719774474808219	COHERENT	LEFT	0	0
0	0	1	0.583978523249243	RANDOM	NONE	0	0
1	0	1	0.664855607250502	COHERENT	RIGHT	0	0
1	0	1	0.604638183533098	COHERENT	RIGHT	0	0
1	0	1	0.459409932696872	COHERENT	RIGHT	0	0
1	0	1	0.484717073279171	COHERENT	RIGHT	0	0
0	0	1	0.548115924706508	RANDOM	NONE	0	0
1	0	1	0.539837572116085	COHERENT	RIGHT	0	0
1	0	1	0.56468470361142	COHERENT	RIGHT	0	0
0	0	1	0.588482326173107	RANDOM	NONE	0	0
1	180	1	0.573429705844319	COHERENT	LEFT	0	0
0	0	1	0.654082520319207	RANDOM	NONE	0	0
0	0	1	0.679868082432222	RANDOM	NONE	0	0
0	0	1	0.613592363122734	RANDOM	NONE	0	0
1	180	1	0.498655288385635	COHERENT	LEFT	0	0
0	0	1	0.474451686666725	RANDOM	NONE	0	0
1	180	1	0.569323732303019	COHERENT	LEFT	0	0
0	0	1	0.564157987162616	RANDOM	NONE	0	0
0	0	0	NaN	RANDOM	NONE	1	0
1	0	1	0.609848903313832	COHERENT	RIGHT	0	0
1	180	1	0.624789539804624	COHERENT	LEFT	0	0
1	180	1	0.548568991402135	COHERENT	LEFT	0	0
0	0	1	0.729398444542312	RANDOM	NONE	0	0
0	0	1	0.753167090151692	RANDOM	NONE	0	0
1	180	1	0.688975296543504	COHERENT	LEFT	0	0
1	0	1	0.622717989677767	COHERENT	RIGHT	0	0
0	0	1	0.749628280056641	RANDOM	NONE	0	0
0	0	1	0.678436439964571	RANDOM	NONE	0	0
1	0	1	0.602950879845594	COHERENT	RIGHT	0	0
0	0	1	0.968944556829229	RANDOM	NONE	0	0
0	0	1	0.747640944187879	RANDOM	NONE	0	0
1	180	1	0.678625393829861	COHERENT	LEFT	0	0
1	180	1	0.773430430264852	COHERENT	LEFT	0	0
0	0	1	0.719327143131522	RANDOM	NONE	0	0
0	0	1	0.903062139263056	RANDOM	NONE	0	0
0	0	1	0.719887967861723	RANDOM	NONE	0	0
0	0	1	0.644648711822811	RANDOM	NONE	0	0
0	0	1	0.628586425867979	RANDOM	NONE	0	0
1	0	1	0.923386149861471	COHERENT	RIGHT	0	0
0	0	1	0.740105729648349	RANDOM	NONE	0	0
0	0	1	0.727933901162032	RANDOM	NONE	0	0
0	0	1	0.604896561340865	RANDOM	NONE	0	0
1	180	1	0.559599852458632	COHERENT	LEFT	0	0
1	0	1	0.704400391430681	COHERENT	RIGHT	0	0
0	0	1	0.599185989161924	RANDOM	NONE	0	0
1	0	1	0.683594035333954	COHERENT	RIGHT	0	0
1	0	1	0.667644940593163	COHERENT	RIGHT	0	0
0	0	1	0.598466998573713	RANDOM	NONE	0	0
0	0	1	0.66458092990797	RANDOM	NONE	0	0
1	0	1	0.593441006851208	COHERENT	RIGHT	0	0
0	0	1	0.479045740717993	RANDOM	NONE	0	0
0	0	1	0.494924204143899	RANDOM	NONE	0	0
0	0	1	0.594829485740775	RANDOM	NONE	0	0
1	0	1	0.593648976842815	COHERENT	RIGHT	0	0
0	0	1	0.529641005767189	RANDOM	NONE	0	0
1	180	1	0.66841947033754	COHERENT	LEFT	0	0
0	0	1	0.499185023265454	RANDOM	NONE	0	0
1	0	0	NaN	COHERENT	RIGHT	1	0
0	0	1	0.642862705393782	RANDOM	NONE	0	0
1	0	0	NaN	COHERENT	RIGHT	1	0
1	180	1	0.54856808587283	COHERENT	LEFT	0	0
1	180	1	0.574384737839864	COHERENT	LEFT	0	0
0	0	1	0.563988049420004	RANDOM	NONE	0	0
1	0	1	0.679977953368507	COHERENT	RIGHT	0	0
1	0	1	0.654854031632567	COHERENT	RIGHT	0	0
1	0	1	0.598655046909698	COHERENT	RIGHT	0	0
1	180	1	0.635201018540101	COHERENT	LEFT	0	0
1	0	1	0.558375274449645	COHERENT	RIGHT	0	0
0	0	1	0.607879979885183	RANDOM	NONE	0	0
0	0	1	0.604954515245481	RANDOM	NONE	0	0
0	0	1	0.650863664050121	RANDOM	NONE	0	0
1	180	1	0.753627702932135	COHERENT	LEFT	0	0
0	0	1	0.719394454172289	RANDOM	NONE	0	0
0	0	1	0.683941155057255	RANDOM	NONE	0	0
1	180	1	0.618102202912269	COHERENT	LEFT	0	0
1	180	1	0.654906854193541	COHERENT	LEFT	0	0
1	0	1	0.644669840850838	COHERENT	RIGHT	0	0
1	0	1	0.798833858843864	COHERENT	RIGHT	0	0
0	0	1	0.668382343621488	RANDOM	NONE	0	0
1	0	1	0.939024044229882	COHERENT	RIGHT	0	0
0	0	1	0.537931733924779	RANDOM	NONE	0	0
1	180	1	0.787898983933701	COHERENT	LEFT	0	0
0	0	1	0.624357903976488	RANDOM	NONE	0	0
0	0	1	0.649127763601427	RANDOM	NONE	0	0
0	0	1	0.598174814320373	RANDOM	NONE	0	0
0	0	1	0.573997171126393	RANDOM	NONE	0	0
1	180	1	0.612965736567276	COHERENT	LEFT	0	0
0	0	1	0.727688502607634	RANDOM	NONE	0	0
1	180	1	0.559561216523434	COHERENT	LEFT	0	0
0	0	1	0.539381788828905	RANDOM	NONE	0	0
1	180	1	0.439175871375483	COHERENT	LEFT	0	0
1	180	1	0.588078761767974	COHERENT	LEFT	0	0
1	180	1	0.554895625627978	COHERENT	LEFT	0	0
0	0	1	0.564697682868427	RANDOM	NONE	0	0
1	0	1	0.494476570624101	COHERENT	RIGHT	0	0
1	180	1	0.42839493651627	COHERENT	LEFT	0	0
0	0	1	0.579973063511716	RANDOM	NONE	0	0
1	180	1	0.513965380996524	COHERENT	LEFT	0	0
0	0	1	0.519863095982146	RANDOM	NONE	0	0
0	0	1	0.532803417347168	RANDOM	NONE	0	0
1	180	1	0.478610482772638	COHERENT	LEFT	0	0
1	180	1	0.568874287724611	COHERENT	LEFT	0	0
1	0	1	0.528236227346497	COHERENT	RIGHT	0	0
1	180	1	0.537855367587326	COHERENT	LEFT	0	0
1	180	1	0.54924179997397	COHERENT	LEFT	0	0
1	180	1	0.494858704161743	COHERENT	LEFT	0	0
0	0	1	0.72996651351059	RANDOM	NONE	0	0
1	180	1	0.704737248481251	COHERENT	LEFT	0	0
0	0	1	0.59489257097448	RANDOM	NONE	0	0
1	180	1	0.538697208376107	COHERENT	LEFT	0	0
0	0	1	0.469631250191014	RANDOM	NONE	0	0
0	0	1	0.554495381496963	RANDOM	NONE	0	0
0	0	1	0.47922443191419	RANDOM	NONE	0	0
0	0	1	0.529120024340955	RANDOM	NONE	0	0
0	0	1	0.434897545350395	RANDOM	NONE	0	0
1	180	0	NaN	COHERENT	LEFT	1	0
1	180	1	0.514190254205459	COHERENT	LEFT	0	0
0	0	1	0.494424653588794	RANDOM	NONE	0	0
0	0	1	0.52820966514264	RANDOM	NONE	0	0
0	0	1	0.59288078580721	RANDOM	NONE	0	0
0	0	1	0.569924098497722	RANDOM	NONE	0	0
1	180	1	0.524693191440747	COHERENT	LEFT	0	0
1	180	1	0.539439742733521	COHERENT	LEFT	0	0
0	0	1	0.598383991684386	RANDOM	NONE	0	0
0	0	1	0.623338277524454	RANDOM	NONE	0	0
0	0	1	0.608002528239012	RANDOM	NONE	0	0
0	0	1	0.672937761737558	RANDOM	NONE	0	0
1	0	1	0.623672719830211	COHERENT	RIGHT	0	0
1	180	1	0.718582797711861	COHERENT	LEFT	0	0
1	0	1	0.813383608343429	COHERENT	RIGHT	0	0
0	0	1	0.659153486682044	RANDOM	NONE	0	0
0	0	1	0.594970446527441	RANDOM	NONE	0	0
0	0	1	0.552847921117063	RANDOM	NONE	0	0
1	180	1	0.523663604166359	COHERENT	LEFT	0	0
0	0	1	0.543559601061133	RANDOM	NONE	0	0
0	0	1	0.539261655223527	RANDOM	NONE	0	0
0	0	1	0.519314344979648	RANDOM	NONE	0	0
0	0	1	0.533129709885543	RANDOM	NONE	0	0
0	0	1	0.523002869322227	RANDOM	NONE	0	0
0	0	1	0.478827206217829	RANDOM	NONE	0	0
1	0	1	0.598622145997069	COHERENT	RIGHT	0	0
0	0	1	0.634466030260228	RANDOM	NONE	0	0
0	0	1	0.563196314615197	RANDOM	NONE	0	0
0	0	1	0.58397973062165	RANDOM	NONE	0	0
0	0	1	0.542875926134002	RANDOM	NONE	0	0
0	0	1	0.544693626095977	RANDOM	NONE	0	0
1	0	1	0.549621518766799	COHERENT	RIGHT	0	0
1	180	1	0.484419455846364	COHERENT	LEFT	0	0
0	0	1	0.703341827200347	RANDOM	NONE	0	0
0	0	1	0.517988045801758	RANDOM	NONE	0	0
0	0	1	0.509962637843273	RANDOM	NONE	0	0
0	0	1	0.459663179168274	RANDOM	NONE	0	0
1	0	1	0.51862342581444	COHERENT	RIGHT	0	0
1	180	1	0.444445752433239	COHERENT	LEFT	0	0
0	0	1	0.494395676640124	RANDOM	NONE	0	0
0	0	1	0.555333600161248	RANDOM	NONE	0	0
1	0	1	0.54691458862726	COHERENT	RIGHT	0	0
1	180	1	0.510192944231676	COHERENT	LEFT	0	0
0	0	1	0.568578783197154	RANDOM	NONE	0	0
1	0	1	0.74803454776702	COHERENT	RIGHT	0	0
1	180	1	0.489174090500455	COHERENT	LEFT	0	0
1	180	1	0.517965407558222	COHERENT	LEFT	0	0
1	0	1	0.547767899453902	COHERENT	RIGHT	0	0
0	0	1	0.518728769100562	RANDOM	NONE	0	0
1	0	0	NaN	COHERENT	RIGHT	1	0
1	0	1	0.48943216646876	COHERENT	RIGHT	0	0
1	180	1	0.49415722048434	COHERENT	LEFT	0	0
1	0	1	0.498993654651713	COHERENT	RIGHT	0	0
1	180	1	0.437915675865952	COHERENT	LEFT	0	0
1	180	1	0.590182005431416	COHERENT	LEFT	0	0
0	0	1	0.578508520127798	RANDOM	NONE	0	0
1	180	0	NaN	COHERENT	LEFT	1	0
1	0	1	0.518217748503957	COHERENT	RIGHT	0	0
0	0	1	0.493983056934667	RANDOM	NONE	0	0
0	0	1	0.644919767051761	RANDOM	NONE	0	0
1	180	1	0.559667767189239	COHERENT	LEFT	0	0
0	0	1	0.574578521198418	RANDOM	NONE	0	0
1	0	1	0.709272744945338	COHERENT	RIGHT	0	0
1	180	1	0.544932384098502	COHERENT	LEFT	0	0
1	0	1	0.569085276147234	COHERENT	RIGHT	0	0
1	180	1	0.672608450764528	COHERENT	LEFT	0	0
0	0	1	0.629623257384083	RANDOM	NONE	0	0
0	0	1	0.564411535484396	RANDOM	NONE	0	0
0	0	1	0.559195986210398	RANDOM	NONE	0	0
1	180	1	0.54802114593258	COHERENT	LEFT	0	0
1	0	1	0.73791495144178	COHERENT	RIGHT	0	0
0	0	1	0.533889751157403	RANDOM	NONE	0	0
1	0	1	0.588623890649615	COHERENT	RIGHT	0	0
1	0	0	NaN	COHERENT	RIGHT	1	0
1	0	1	0.564416364974022	COHERENT	RIGHT	0	0
0	0	1	0.515180903708824	RANDOM	NONE	0	0
0	0	1	0.727747060198453	RANDOM	NONE	0	0
0	0	1	0.603854900331498	RANDOM	NONE	0	0
1	0	1	0.523656963614485	COHERENT	RIGHT	0	0
0	0	1	0.619390167998063	RANDOM	NONE	0	0
1	180	1	0.644193230382371	COHERENT	LEFT	0	0
1	180	1	0.605092457601131	COHERENT	LEFT	0	0
1	0	1	0.659853762990679	COHERENT	RIGHT	0	0
0	0	1	0.523667829969781	RANDOM	NONE	0	0
1	180	1	0.533652502370387	COHERENT	LEFT	0	0
0	0	1	0.543419243957032	RANDOM	NONE	0	0
1	0	1	0.56319872936001	COHERENT	RIGHT	0	0
1	0	1	0.579132731942082	COHERENT	RIGHT	0	0
1	0	1	0.684900111016759	COHERENT	RIGHT	0	0
0	0	1	0.569690471835202	RANDOM	NONE	0	0
1	180	1	0.624567685026705	COHERENT	LEFT	0	0
0	0	1	0.558406967989868	RANDOM	NONE	0	0
1	180	1	0.508060421772825	COHERENT	LEFT	0	0
0	0	1	0.598076413425588	RANDOM	NONE	0	0
0	0	1	0.779868142799387	RANDOM	NONE	0	0
0	0	1	0.52964674078612	RANDOM	NONE	0	0
1	0	1	0.579260109785537	COHERENT	RIGHT	0	0
1	0	1	0.564383765904495	COHERENT	RIGHT	0	0
0	0	1	0.63329004901243	RANDOM	NONE	0	0
0	0	1	0.634968599246349	RANDOM	NONE	0	0
0	0	1	0.614855878910021	RANDOM	NONE	0	0
0	0	1	0.599587440665346	RANDOM	NONE	0	0
0	0	1	0.598410252045142	RANDOM	NONE	0	0
1	180	1	0.579322893179778	COHERENT	LEFT	0	0
0	0	1	0.52904516721901	RANDOM	NONE	0	0
0	0	1	0.494947446077276	RANDOM	NONE	0	0
0	0	1	0.677342560076795	RANDOM	NONE	0	0
1	0	1	0.599866041971836	COHERENT	RIGHT	0	0
1	180	0	NaN	COHERENT	LEFT	1	0
0	0	1	0.737851262518234	RANDOM	NONE	0	0
1	0	1	0.559175159025472	COHERENT	RIGHT	0	0
1	180	1	0.58490306908061	COHERENT	LEFT	0	0
0	0	1	0.574559806918842	RANDOM	NONE	0	0
1	180	1	0.57960541844659	COHERENT	LEFT	0	0
0	0	1	0.483382322490797	RANDOM	NONE	0	0
1	0	1	0.448263163834781	COHERENT	RIGHT	0	0
1	180	1	0.563142284674541	COHERENT	LEFT	0	0
0	0	1	0.5248866729562	RANDOM	NONE	0	0
1	0	1	0.529889120905864	COHERENT	RIGHT	0	0
1	180	1	0.559695536765503	COHERENT	LEFT	0	0
1	180	1	0.629460563875909	COHERENT	LEFT	0	0
1	180	1	0.718371507446136	COHERENT	LEFT	0	0
1	0	1	0.739410584676079	COHERENT	RIGHT	0	0
1	180	1	0.642938769891771	COHERENT	LEFT	0	0
1	0	1	0.583814018686098	COHERENT	RIGHT	0	0
0	0	1	0.539729210395308	RANDOM	NONE	0	0
0	0	1	0.649272346512589	RANDOM	NONE	0	0
1	0	1	0.609159493360494	COHERENT	RIGHT	0	0
1	180	1	0.504085448199476	COHERENT	LEFT	0	0
0	0	1	0.634889818164083	RANDOM	NONE	0	0
0	0	1	0.707650035707047	RANDOM	NONE	0	0
0	0	1	0.594431958197674	RANDOM	NONE	0	0
1	0	1	0.750380473396945	COHERENT	RIGHT	0	0
1	0	1	0.538010515010683	COHERENT	RIGHT	0	0
1	0	1	0.59492154792315	COHERENT	RIGHT	0	0
0	0	1	0.499813159036421	RANDOM	NONE	0	0
1	180	1	0.788375594402169	COHERENT	LEFT	0	0
1	0	1	0.889227456384106	COHERENT	RIGHT	0	0
1	0	1	0.763214244103438	COHERENT	RIGHT	0	0
0	0	1	0.608946392039798	RANDOM	NONE	0	0
1	180	0	NaN	COHERENT	LEFT	1	0
