onset	duration	trial_type	trial_type_id	response_time	bad_epoch	outliers	event_num	response_accuracy
71.2177734375	0.2	FACES	1	0.811667490201216	0	0	1.0	1
72.7080078125	0.2	FACES	1	0.538386494932638	0	0	8.0	1
74.20751953125	0.2	SCRAMBLED	0	0.537165528356127	0	0	16.0	1
n/a	0.2	SCRAMBLED	0	0.471950519007805	1	0	n/a	1
76.7275390625	0.2	SCRAMBLED	0	0.36346982703617	0	0	24.0	1
77.87744140625	0.2	SCRAMBLED	0	0.346667878075095	0	0	32.0	1
79.1875	0.2	SCRAMBLED	0	0.473452202251792	0	0	40.0	1
80.55712890625	0.2	SCRAMBLED	0	0.498972063862311	0	0	48.0	1
81.796875	0.2	SCRAMBLED	0	0.409152389609517	0	0	56.0	1
82.95703125	0.2	FACES	1	0.420055666414555	0	0	64.0	1
84.06689453125	0.2	FACES	1	0.486766322090261	0	0	72.0	1
85.4267578125	0.2	FACES	1	0.428685440074332	0	0	80.0	1
86.5966796875	0.2	FACES	1	0.436533432901342	0	0	88.0	1
87.8466796875	0.2	FACES	1	0.351503750887787	0	0	96.0	1
88.99658203125	0.2	FACES	1	0.312078755210678	0	0	104.0	1
90.0966796875	0.2	SCRAMBLED	0	0.523993577924557	0	0	112.0	1
91.5361328125	0.2	FACES	1	0.353887427787413	0	0	120.0	1
92.68603515625	0.2	FACES	1	0.413576846487558	0	0	128.0	1
93.76611328125	0.2	SCRAMBLED	0	0.528419544039934	0	0	136.0	1
95.255859375	0.2	FACES	1	0.324425760853046	0	0	144.0	1
96.40576171875	0.2	FACES	1	0.498065620689886	0	0	152.0	1
97.72607421875	0.2	SCRAMBLED	0	0.487764224562852	0	0	160.0	1
98.935546875	0.2	FACES	1	0.384942539109034	0	0	168.0	1
100.255859375	0.2	FACES	1	0.368862001800153	0	0	176.0	1
101.40576171875	0.2	FACES	1	0.317649019045348	0	0	184.0	1
102.60546875	0.2	SCRAMBLED	0	0.492483584865113	0	0	192.0	1
103.79541015625	0.2	FACES	1	0.375339010653988	0	0	200.0	1
105.025390625	0.2	SCRAMBLED	0	0.546146952456183	0	0	208.0	1
106.4150390625	0.2	SCRAMBLED	0	0.452926984387886	0	0	216.0	1
107.53515625	0.2	SCRAMBLED	0	0.394929411831981	0	0	224.0	1
108.71484375	0.2	FACES	1	0.436545204891445	0	0	232.0	1
110.0849609375	0.2	FACES	1	0.435575072238862	0	0	240.0	1
111.20458984375	0.2	SCRAMBLED	0	0.489360989256966	0	0	248.0	1
112.61474609375	0.2	SCRAMBLED	0	0.403011033373332	0	0	256.0	1
113.90478515625	0.2	FACES	1	0.402060218857514	0	0	264.0	1
114.96435546875	0.2	SCRAMBLED	0	0.511504402875289	0	0	272.0	1
116.45458984375	0.2	SCRAMBLED	0	0.57675080419358	0	0	280.0	1
117.80419921875	0.2	FACES	1	0.356452514060948	0	0	288.0	1
119.1240234375	0.2	SCRAMBLED	0	0.89736093130341	0	0	296.0	1
120.6943359375	0.2	SCRAMBLED	0	0.587257757364569	0	0	302.0	1
122.22412109375	0.2	FACES	1	0.453939979153802	0	0	308.0	1
123.6240234375	0.2	SCRAMBLED	0	0.454284687148174	0	0	316.0	1
124.99365234375	0.2	SCRAMBLED	0	0.557676861310028	0	0	324.0	1
126.2138671875	0.2	SCRAMBLED	0	0.467525156589545	0	0	332.0	1
127.4833984375	0.2	FACES	1	0.773095812823158	0	0	340.0	1
129.13330078125	0.2	SCRAMBLED	0	0.504096803178982	0	0	346.0	1
130.3935546875	0.2	FACES	1	0.660678446904058	0	0	354.0	1
132.01318359375	0.2	SCRAMBLED	0	0.489581638594245	0	0	360.0	1
133.26318359375	0.2	FACES	1	0.461448093523359	0	0	368.0	1
134.51318359375	0.2	FACES	1	0.388411050094874	0	0	376.0	1
135.73291015625	0.2	SCRAMBLED	0	0.493869962981989	0	0	384.0	1
136.90283203125	0.2	SCRAMBLED	0	0.46709925205505	0	0	392.0	1
138.08251953125	0.2	FACES	1	0.436924021469167	0	0	400.0	1
139.22265625	0.2	SCRAMBLED	0	0.512639343378396	0	0	408.0	1
140.42236328125	0.2	SCRAMBLED	0	0.50250909386159	0	0	416.0	1
141.62255859375	0.2	FACES	1	0.502336739864404	0	0	424.0	1
143.01220703125	0.2	FACES	1	0.357442870386876	0	0	432.0	1
144.072265625	0.2	FACES	1	0.382215663445095	0	0	440.0	1
145.322265625	0.2	FACES	1	0.423090726722876	0	0	448.0	1
146.51220703125	0.2	SCRAMBLED	0	0.477885110816715	0	0	456.0	1
147.7822265625	0.2	SCRAMBLED	0	0.491658941926289	0	0	464.0	1
148.99169921875	0.2	FACES	1	0.423648537904228	0	0	472.0	1
150.31201171875	0.2	FACES	1	0.443162270232278	0	0	480.0	1
151.66162109375	0.2	FACES	1	0.312140935460775	0	0	488.0	1
152.8115234375	0.2	SCRAMBLED	0	0.43310053973255	0	0	496.0	1
154.03173828125	0.2	FACES	1	0.349024388844555	0	0	504.0	1
155.17138671875	0.2	FACES	1	0.418080688836199	0	0	512.0	1
156.28125	0.2	FACES	1	0.341500880331296	0	0	520.0	1
157.521484375	0.2	FACES	1	0.448439441715891	0	0	528.0	1
158.791015625	0.2	FACES	1	0.348328634096106	0	0	536.0	1
160.0712890625	0.2	FACES	1	0.31813861306	0	0	544.0	1
161.32080078125	0.2	SCRAMBLED	0	0.493912825102598	0	0	552.0	1
162.56103515625	0.2	FACES	1	0.386835716457426	0	0	560.0	1
163.82080078125	0.2	FACES	1	0.418651479390974	0	0	568.0	1
165.1708984375	0.2	SCRAMBLED	0	0.51342202973683	0	0	576.0	1
166.48046875	0.2	SCRAMBLED	0	0.443345188832609	0	0	584.0	1
167.73046875	0.2	FACES	1	0.392104134411056	0	0	592.0	1
169.04052734375	0.2	FACES	1	0.388082038087305	0	0	600.0	1
170.09033203125	0.2	FACES	1	0.391848470953846	0	0	608.0	1
171.30029296875	0.2	SCRAMBLED	0	n/a	0	1	616.0	0
172.41015625	0.2	FACES	1	0.669283167353569	0	0	624.0	1
173.830078125	0.2	SCRAMBLED	0	0.619357255425712	0	0	632.0	1
175.419921875	0.2	SCRAMBLED	0	0.51512625156829	0	0	638.0	1
176.75	0.2	SCRAMBLED	0	0.495917383577762	0	0	646.0	1
177.99951171875	0.2	SCRAMBLED	0	0.495606482319999	0	0	654.0	1
179.16943359375	0.2	SCRAMBLED	0	0.435277452201262	0	0	662.0	1
180.36962890625	0.2	SCRAMBLED	0	0.424598748730205	0	0	670.0	1
181.69921875	0.2	FACES	1	0.459298649027915	0	0	678.0	1
182.9091796875	0.2	FACES	1	0.409128845629311	0	0	686.0	1
183.96923828125	0.2	SCRAMBLED	0	0.500926515920582	0	0	694.0	1
185.43896484375	0.2	SCRAMBLED	0	0.493926408162224	0	0	702.0	1
186.67919921875	0.2	FACES	1	0.524638622566272	0	0	710.0	1
187.90869140625	0.2	FACES	1	0.421442346378171	0	0	718.0	1
188.98876953125	0.2	SCRAMBLED	0	0.518239489952975	0	0	726.0	1
190.27880859375	0.2	SCRAMBLED	0	0.518135654969228	0	0	734.0	1
191.65869140625	0.2	FACES	1	0.468935682380106	0	0	742.0	1
193.0986328125	0.2	SCRAMBLED	0	0.508985197178845	0	0	750.0	1
194.41845703125	0.2	SCRAMBLED	0	0.488677006498619	0	0	758.0	1
195.7783203125	0.2	FACES	1	0.438422686253034	0	0	766.0	1
197.0283203125	0.2	SCRAMBLED	0	0.579400407310459	0	0	774.0	1
198.54833984375	0.2	FACES	1	0.488156926050578	0	0	780.0	1
199.7177734375	0.2	FACES	1	0.425921739210025	0	0	788.0	1
200.93798828125	0.2	SCRAMBLED	0	0.475027234046138	0	0	796.0	1
202.06787109375	0.2	SCRAMBLED	0	0.496858539023378	0	0	804.0	1
203.3076171875	0.2	SCRAMBLED	0	0.452591029923497	0	0	812.0	1
204.4375	0.2	FACES	1	0.485264336999535	0	0	820.0	1
205.83740234375	0.2	SCRAMBLED	0	0.45603086554911	0	0	828.0	1
207.0576171875	0.2	FACES	1	0.461103385532624	0	0	836.0	1
208.37744140625	0.2	SCRAMBLED	0	0.507884365259088	0	0	844.0	1
209.62744140625	0.2	SCRAMBLED	0	0.751643626270379	0	0	852.0	1
211.20703125	0.2	SCRAMBLED	0	0.972565831831162	0	0	858.0	1
213.046875	0.2	FACES	1	0.471106557935855	0	0	863.0	1
214.466796875	0.2	SCRAMBLED	0	0.671588968016295	0	0	871.0	1
216.07666015625	0.2	FACES	1	0.357845834634645	0	0	877.0	1
217.16650390625	0.2	SCRAMBLED	0	0.482579719759087	0	0	885.0	1
218.58642578125	0.2	SCRAMBLED	0	0.612381295333762	0	0	893.0	1
219.986328125	0.2	FACES	1	0.445314431341103	0	0	901.0	1
221.24658203125	0.2	FACES	1	0.468341045998386	0	0	909.0	1
222.50634765625	0.2	FACES	1	0.486079924561636	0	0	917.0	1
223.8359375	0.2	SCRAMBLED	0	0.609874767164001	0	0	925.0	1
225.30615234375	0.2	SCRAMBLED	0	0.516834397392813	0	0	933.0	1
226.7060546875	0.2	FACES	1	0.46563348847485	0	0	941.0	1
228.10595703125	0.2	FACES	1	0.545166557047196	0	0	949.0	1
229.37548828125	0.2	SCRAMBLED	0	0.485752723630867	0	0	957.0	1
230.8056640625	0.2	FACES	1	0.430087816021114	0	0	965.0	1
232.025390625	0.2	FACES	1	0.463956432773557	0	0	973.0	1
233.35546875	0.2	FACES	1	0.365594520168088	0	0	981.0	1
234.41552734375	0.2	FACES	1	0.43844894684662	0	0	989.0	1
235.54541015625	0.2	FACES	1	0.434386403168901	0	0	997.0	1
236.9150390625	0.2	SCRAMBLED	0	0.47115787173243	0	0	1005.0	1
238.2451171875	0.2	FACES	1	0.413954153838858	0	0	1013.0	1
239.43505859375	0.2	FACES	1	0.419052934408683	0	0	1021.0	1
240.6650390625	0.2	SCRAMBLED	0	0.538660570990032	0	0	1029.0	1
241.91455078125	0.2	FACES	1	0.411645334716013	0	0	1037.0	1
243.21484375	0.2	SCRAMBLED	0	0.653359589901811	0	0	1045.0	1
n/a	0.2	FACES	1	0.45628834008312	1	0	n/a	1
245.7744140625	0.2	SCRAMBLED	0	0.377108129345288	0	0	1053.0	1
246.8544921875	0.2	SCRAMBLED	0	0.438082204102102	0	0	1061.0	1
248.154296875	0.2	SCRAMBLED	0	0.369029828107159	0	0	1069.0	1
249.404296875	0.2	FACES	1	0.408745803208149	0	0	1077.0	1
250.77392578125	0.2	SCRAMBLED	0	0.448513393956091	0	0	1085.0	1
252.10400390625	0.2	SCRAMBLED	0	0.493373728360893	0	0	1093.0	1
253.4140625	0.2	SCRAMBLED	0	0.367124576925562	0	0	1101.0	1
254.7236328125	0.2	SCRAMBLED	0	0.483040034723672	0	0	1109.0	1
255.91357421875	0.2	SCRAMBLED	0	0.395866945127636	0	0	1117.0	1
257.16357421875	0.2	FACES	1	0.433766411737452	0	0	1125.0	1
258.46337890625	0.2	SCRAMBLED	0	0.418573905000812	0	0	1133.0	1
259.693359375	0.2	FACES	1	0.423111855932802	0	0	1141.0	1
260.96337890625	0.2	FACES	1	0.331994244403177	0	0	1149.0	1
262.18310546875	0.2	SCRAMBLED	0	0.884033530248416	0	0	1157.0	1
272.42236328125	0.2	SCRAMBLED	0	0.586492879905563	0	0	1160.0	1
273.72216796875	0.2	SCRAMBLED	0	0.317571746501926	0	0	1168.0	1
274.96240234375	0.2	SCRAMBLED	0	0.309224198739685	0	0	1176.0	1
275.92236328125	0.2	SCRAMBLED	0	0.367278216475825	0	0	1186.0	1
277.19189453125	0.2	FACES	1	0.393104451653926	0	0	1194.0	1
278.43212890625	0.2	FACES	1	0.478856752699357	0	0	1202.0	1
279.66162109375	0.2	FACES	1	0.362889981101034	0	0	1210.0	1
280.681640625	0.2	FACES	1	0.372471172962832	0	0	1218.0	1
281.9814453125	0.2	FACES	1	0.338427485599823	0	0	1226.0	1
282.9814453125	0.2	FACES	1	0.382317083662201	0	0	1235.0	1
284.25146484375	0.2	FACES	1	0.378298307641671	0	0	1243.0	1
285.431640625	0.2	FACES	1	0.383069585437624	0	0	1251.0	1
286.55126953125	0.2	SCRAMBLED	0	0.462012847161532	0	0	1259.0	1
287.72119140625	0.2	SCRAMBLED	0	0.447818846590962	0	0	1267.0	1
288.9013671875	0.2	SCRAMBLED	0	0.372563537803217	0	0	1275.0	1
290.19091796875	0.2	SCRAMBLED	0	0.438530747076584	0	0	1283.0	1
291.541015625	0.2	SCRAMBLED	0	0.377150689611881	0	0	1291.0	1
292.890625	0.2	SCRAMBLED	0	0.407998734663124	0	0	1299.0	1
294.1708984375	0.2	SCRAMBLED	0	0.403765949911758	0	0	1307.0	1
295.310546875	0.2	FACES	1	0.497813277535897	0	0	1315.0	1
296.67041015625	0.2	SCRAMBLED	0	0.738673610729165	0	0	1323.0	1
298.1904296875	0.2	SCRAMBLED	0	0.493509257157712	0	0	1329.0	1
299.38037109375	0.2	FACES	1	0.637292635652557	0	0	1337.0	1
300.76025390625	0.2	FACES	1	0.471045886912179	0	0	1345.0	1
302.05029296875	0.2	FACES	1	0.52386197312444	0	0	1353.0	1
303.25	0.2	FACES	1	0.497659637985635	0	0	1361.0	1
304.69970703125	0.2	FACES	1	0.363619844436471	0	0	1369.0	1
305.7998046875	0.2	FACES	1	0.616515980174881	0	0	1377.0	1
307.2998046875	0.2	SCRAMBLED	0	0.463324367505265	0	0	1384.0	1
308.6494140625	0.2	SCRAMBLED	0	0.443102806591924	0	0	1392.0	1
309.939453125	0.2	FACES	1	0.459087960603938	0	0	1400.0	1
311.2392578125	0.2	FACES	1	0.363784350436617	0	0	1408.0	1
312.51953125	0.2	SCRAMBLED	0	0.459419387381786	0	0	1416.0	1
313.93896484375	0.2	SCRAMBLED	0	0.469387847504549	0	0	1424.0	1
315.08935546875	0.2	FACES	1	0.476266009529354	0	0	1432.0	1
316.2587890625	0.2	FACES	1	0.527093535096355	0	0	1440.0	1
317.43896484375	0.2	SCRAMBLED	0	0.488064561210194	0	0	1448.0	1
318.5888671875	0.2	SCRAMBLED	0	0.456825625748024	0	0	1456.0	1
319.958984375	0.2	SCRAMBLED	0	0.438717589677253	0	0	1464.0	1
321.10888671875	0.2	SCRAMBLED	0	0.398069816346833	0	0	1472.0	1
322.3984375	0.2	SCRAMBLED	0	0.522290261636954	0	0	1480.0	1
323.6982421875	0.2	FACES	1	0.469197986447398	0	0	1488.0	1
325.04833984375	0.2	FACES	1	0.347082916159707	0	0	1496.0	1
326.26806640625	0.2	SCRAMBLED	0	0.629963214043528	0	0	1504.0	1
327.54833984375	0.2	FACES	1	0.871605629905389	0	0	1512.0	1
329.34814453125	0.2	FACES	1	0.848499327938043	0	0	1517.0	1
330.89794921875	0.2	SCRAMBLED	0	0.620866484812723	0	0	1523.0	1
332.16796875	0.2	FACES	1	0.561919908817799	0	0	1531.0	1
333.41748046875	0.2	FACES	1	0.456943949331617	0	0	1539.0	1
334.58740234375	0.2	FACES	1	0.552546688762959	0	0	1547.0	1
336.017578125	0.2	FACES	1	0.517438390990719	0	0	1555.0	1
337.27734375	0.2	SCRAMBLED	0	0.483339767681173	0	0	1563.0	1
338.4873046875	0.2	SCRAMBLED	0	0.483315921857866	0	0	1571.0	1
339.70703125	0.2	SCRAMBLED	0	0.37309116439792	0	0	1579.0	1
340.77734375	0.2	FACES	1	0.467007490908145	0	0	1587.0	1
342.14697265625	0.2	SCRAMBLED	0	0.468880142736452	0	0	1595.0	1
343.39697265625	0.2	SCRAMBLED	0	0.46444451755815	0	0	1603.0	1
344.64697265625	0.2	FACES	1	0.408349781417201	0	0	1611.0	1
345.89697265625	0.2	SCRAMBLED	0	0.433327527833171	0	0	1619.0	1
347.12646484375	0.2	SCRAMBLED	0	0.429198879908654	0	0	1627.0	1
348.28662109375	0.2	FACES	1	0.491987350240379	0	0	1635.0	1
349.486328125	0.2	SCRAMBLED	0	0.517948812372197	0	0	1643.0	1
350.896484375	0.2	FACES	1	0.362513277446851	0	0	1651.0	1
352.2060546875	0.2	FACES	1	0.447520924710261	0	0	1659.0	1
353.55615234375	0.2	SCRAMBLED	0	0.498288382950705	0	0	1667.0	1
354.98583984375	0.2	FACES	1	0.377946657194116	0	0	1675.0	1
356.326171875	0.2	SCRAMBLED	0	0.468000865694194	0	0	1683.0	1
357.7060546875	0.2	FACES	1	0.463773514173226	0	0	1691.0	1
359.10595703125	0.2	SCRAMBLED	0	0.414618214766961	0	0	1699.0	1
360.35546875	0.2	SCRAMBLED	0	0.494566925117397	0	0	1707.0	1
361.6953125	0.2	FACES	1	0.424108852865174	0	0	1715.0	1
362.8056640625	0.2	SCRAMBLED	0	0.593214383919985	0	0	1723.0	1
364.0654296875	0.2	SCRAMBLED	0	0.427032833889825	0	0	1731.0	1
365.17529296875	0.2	SCRAMBLED	0	0.502901191655837	0	0	1739.0	1
366.59521484375	0.2	SCRAMBLED	0	0.337795420331531	0	0	1747.0	1
367.89501953125	0.2	SCRAMBLED	0	0.339519865836337	0	0	1755.0	1
368.96484375	0.2	SCRAMBLED	0	0.412328411937779	0	0	1763.0	1
370.23486328125	0.2	FACES	1	0.394276821043604	0	0	1771.0	1
371.56494140625	0.2	FACES	1	0.589004237615882	0	0	1779.0	1
372.96484375	0.2	FACES	1	0.413979207045486	0	0	1787.0	1
374.33447265625	0.2	SCRAMBLED	0	0.449708401789394	0	0	1795.0	1
375.5146484375	0.2	FACES	1	0.417254838514054	0	0	1803.0	1
376.63427734375	0.2	FACES	1	0.463357268705295	0	0	1811.0	1
377.82421875	0.2	SCRAMBLED	0	0.468239323938178	0	0	1819.0	1
379.0341796875	0.2	FACES	1	0.409875612331234	0	0	1827.0	1
380.1943359375	0.2	SCRAMBLED	0	0.532986774018354	0	0	1835.0	1
381.4541015625	0.2	SCRAMBLED	0	0.471786013004021	0	0	1843.0	1
382.89404296875	0.2	SCRAMBLED	0	0.297667727456428	0	0	1851.0	1
384.06396484375	0.2	SCRAMBLED	0	0.438437476703257	0	0	1859.0	1
385.27392578125	0.2	FACES	1	0.518239791796077	0	0	1867.0	1
386.61376953125	0.2	SCRAMBLED	0	0.429179863618629	0	0	1875.0	1
387.99365234375	0.2	FACES	1	0.322979919099453	0	0	1883.0	1
389.08349609375	0.2	FACES	1	0.50059086330657	0	0	1891.0	1
390.34326171875	0.2	FACES	1	0.509610621837055	0	0	1899.0	1
391.60302734375	0.2	FACES	1	0.376549412623717	0	0	1907.0	1
392.88330078125	0.2	FACES	1	0.352144569686061	0	0	1915.0	1
393.90283203125	0.2	SCRAMBLED	0	0.508244467389886	0	0	1923.0	1
395.32275390625	0.2	SCRAMBLED	0	0.308997512485803	0	0	1931.0	1
396.3828125	0.2	SCRAMBLED	0	0.357885678287857	0	0	1939.0	1
397.70263671875	0.2	FACES	1	0.543634689212922	0	0	1947.0	1
399.20263671875	0.2	FACES	1	0.483524195511563	0	0	1954.0	1
400.392578125	0.2	FACES	1	0.391469654379762	0	0	1962.0	1
401.4423828125	0.2	SCRAMBLED	0	0.507228152320749	0	0	1970.0	1
402.80224609375	0.2	FACES	1	0.54286256746127	0	0	1978.0	1
404.21240234375	0.2	SCRAMBLED	0	0.630025394293625	0	0	1986.0	1
405.77197265625	0.2	FACES	1	0.338658699547523	0	0	1992.0	1
406.7919921875	0.2	SCRAMBLED	0	0.542273967996152	0	0	2000.0	1
408.08203125	0.2	SCRAMBLED	0	n/a	0	1	2008.0	0
409.2919921875	0.2	FACES	1	0.538161016062077	0	0	2016.0	1
410.6416015625	0.2	SCRAMBLED	0	0.458841352519812	0	0	2024.0	1
412.00146484375	0.2	SCRAMBLED	0	0.583917832722364	0	0	2032.0	1
413.2314453125	0.2	FACES	1	0.45259948160674	0	0	2040.0	1
414.4013671875	0.2	FACES	1	0.372608210993349	0	0	2048.0	1
415.701171875	0.2	FACES	1	0.37870127188944	0	0	2056.0	1
416.87109375	0.2	FACES	1	0.387178915221739	0	0	2064.0	1
418.0810546875	0.2	FACES	1	0.408147242833365	0	0	2072.0	1
419.40087890625	0.2	FACES	1	0.404125750199455	0	0	2080.0	1
420.451171875	0.2	FACES	1	0.43062872383598	0	0	2088.0	1
421.65087890625	0.2	SCRAMBLED	0	0.537653613137081	0	0	2096.0	1
423.16064453125	0.2	SCRAMBLED	0	0.388439121761621	0	0	2102.0	1
n/a	0.2	SCRAMBLED	0	0.304393457310653	1	0	n/a	1
n/a	0.2	SCRAMBLED	0	0.323204794280173	1	0	n/a	1
426.6904296875	0.2	FACES	1	0.452009071072098	0	0	2111.0	1
427.810546875	0.2	FACES	1	0.441946736882528	0	0	2119.0	1
429.21044921875	0.2	FACES	1	0.32367054246788	0	0	2127.0	1
430.43017578125	0.2	FACES	1	0.333384546516754	0	0	2135.0	1
431.4501953125	0.2	FACES	1	0.427300269337138	0	0	2143.0	1
432.60986328125	0.2	SCRAMBLED	0	0.473208008937945	0	0	2151.0	1
433.89990234375	0.2	SCRAMBLED	0	0.658021901333996	0	0	2159.0	1
435.2197265625	0.2	SCRAMBLED	0	0.377833464986907	0	0	2167.0	1
436.3798828125	0.2	FACES	1	0.428655859177525	0	0	2175.0	1
437.4697265625	0.2	FACES	1	0.44265064146748	0	0	2183.0	1
438.81982421875	0.2	SCRAMBLED	0	0.718309276722721	0	0	2191.0	1
440.36962890625	0.2	FACES	1	0.468243247934879	0	0	2197.0	1
441.599609375	0.2	FACES	1	0.349868953613623	0	0	2205.0	1
442.69921875	0.2	SCRAMBLED	0	0.557818728870188	0	0	2213.0	1
444.21923828125	0.2	SCRAMBLED	0	0.668699397425371	0	0	2219.0	1
445.85888671875	0.2	SCRAMBLED	0	0.438505693869956	0	0	2225.0	1
447.05908203125	0.2	FACES	1	0.472453092395881	0	0	2233.0	1
448.458984375	0.2	FACES	1	0.328254675816424	0	0	2241.0	1
449.62890625	0.2	SCRAMBLED	0	0.484072045779612	0	0	2249.0	1
451.02880859375	0.2	SCRAMBLED	0	0.596921956843289	0	0	2257.0	1
452.50830078125	0.2	SCRAMBLED	0	0.483675118452084	0	0	2265.0	1
453.80859375	0.2	FACES	1	0.568300930681289	0	0	2273.0	1
455.04833984375	0.2	SCRAMBLED	0	0.487417101801839	0	0	2281.0	1
456.22802734375	0.2	SCRAMBLED	0	0.4821094438812	0	0	2289.0	1
457.51806640625	0.2	SCRAMBLED	0	0.538046616475185	0	0	2297.0	1
458.7880859375	0.2	FACES	1	0.556867914358008	0	0	2305.0	1
460.14794921875	0.2	FACES	1	0.333719897287665	0	0	2313.0	1
461.337890625	0.2	FACES	1	0.343541056623508	0	0	2321.0	1
480.1865234375	0.2	FACES	1	0.570654422990629	0	0	2325.0	1
481.51611328125	0.2	SCRAMBLED	0	0.426011085590289	0	0	2333.0	1
482.88623046875	0.2	SCRAMBLED	0	0.503884303681843	0	0	2341.0	1
484.26611328125	0.2	SCRAMBLED	0	0.343489742823294	0	0	2349.0	1
485.35595703125	0.2	SCRAMBLED	0	0.42350817957049	0	0	2357.0	1
486.43603515625	0.2	FACES	1	0.42244175808446	0	0	2365.0	1
487.67578125	0.2	SCRAMBLED	0	0.359079478734202	0	0	2373.0	1
488.78564453125	0.2	SCRAMBLED	0	0.396960532747471	0	0	2381.0	1
490.025390625	0.2	SCRAMBLED	0	0.423891523834754	0	0	2389.0	1
491.10546875	0.2	FACES	1	0.372974048197648	0	0	2397.0	1
n/a	0.2	FACES	1	0.438643033743574	1	0	n/a	1
493.7255859375	0.2	SCRAMBLED	0	0.443196982509107	0	0	2405.0	1
494.865234375	0.2	SCRAMBLED	0	0.633278991015686	0	0	2413.0	1
496.365234375	0.2	SCRAMBLED	0	0.368140288304858	0	0	2420.0	1
497.5751953125	0.2	FACES	1	n/a	0	1	2428.0	0
498.7451171875	0.2	FACES	1	0.597317374940758	0	0	2436.0	1
n/a	0.2	FACES	1	0.46263676259332	1	0	n/a	1
501.3447265625	0.2	SCRAMBLED	0	0.552402406436158	0	0	2444.0	1
502.564453125	0.2	FACES	1	0.462334614872816	0	0	2452.0	1
503.734375	0.2	FACES	1	0.36217068237238	0	0	2460.0	1
504.984375	0.2	SCRAMBLED	0	0.554708207098884	0	0	2468.0	1
506.4345703125	0.2	SCRAMBLED	0	0.318753473115066	0	0	2476.0	1
507.63427734375	0.2	FACES	1	0.378690707282658	0	0	2484.0	1
508.984375	0.2	SCRAMBLED	0	0.448380279925914	0	0	2492.0	1
510.19384765625	0.2	SCRAMBLED	0	0.417218617007165	0	0	2500.0	1
511.494140625	0.2	FACES	1	0.388184363840992	0	0	2508.0	1
n/a	0.2	FACES	1	0.483951609276119	1	0	n/a	1
n/a	0.2	SCRAMBLED	0	0.587980074549705	1	0	n/a	1
515.54345703125	0.2	SCRAMBLED	0	0.557668107780046	0	0	2516.0	1
517.0634765625	0.2	SCRAMBLED	0	0.748444361808652	0	0	2522.0	1
518.54345703125	0.2	SCRAMBLED	0	0.412393308801256	0	0	2530.0	1
519.9130859375	0.2	SCRAMBLED	0	0.676854971206922	0	0	2538.0	1
521.39306640625	0.2	SCRAMBLED	0	0.539895120629808	0	0	2546.0	1
522.68310546875	0.2	SCRAMBLED	0	0.352691514417529	0	0	2554.0	1
523.76318359375	0.2	FACES	1	0.437470362510794	0	0	2562.0	1
525.03271484375	0.2	SCRAMBLED	0	0.493191715297144	0	0	2570.0	1
526.27294921875	0.2	FACES	1	0.417602564964909	0	0	2578.0	1
527.5029296875	0.2	SCRAMBLED	0	0.32713633684034	0	0	2586.0	1
528.6328125	0.2	SCRAMBLED	0	0.329964632717747	0	0	2594.0	1
529.642578125	0.2	FACES	1	0.396818363336934	0	0	2602.0	1
530.87255859375	0.2	FACES	1	n/a	0	1	2610.0	0
n/a	0.2	FACES	1	0.694446850826353	1	0	n/a	1
n/a	0.2	FACES	1	0.402359348121536	1	0	n/a	1
534.67236328125	0.2	SCRAMBLED	0	n/a	0	1	2618.0	0
535.671875	0.2	FACES	1	0.597102158830239	0	0	2628.0	1
537.1220703125	0.2	SCRAMBLED	0	0.428891600804491	0	0	2636.0	1
538.412109375	0.2	FACES	1	0.462717053596862	0	0	2644.0	1
539.81201171875	0.2	FACES	1	0.546220301006542	0	0	2652.0	1
541.3115234375	0.2	FACES	1	0.313383936787432	0	0	2660.0	1
542.3017578125	0.2	SCRAMBLED	0	0.707152147529996	0	0	2670.0	1
n/a	0.2	SCRAMBLED	0	0.493782427678525	1	0	n/a	1
545.03125	0.2	FACES	1	0.561859841487603	0	0	2677.0	1
546.50146484375	0.2	FACES	1	0.503554989827535	0	0	2685.0	1
547.85107421875	0.2	SCRAMBLED	0	0.603421604137111	0	0	2693.0	1
549.291015625	0.2	SCRAMBLED	0	0.56424170731043	0	0	2701.0	1
550.5908203125	0.2	SCRAMBLED	0	0.392191066024679	0	0	2709.0	1
551.7509765625	0.2	FACES	1	0.487922995496774	0	0	2717.0	1
552.90087890625	0.2	FACES	1	0.561605989103555	0	0	2725.0	1
554.16064453125	0.2	FACES	1	0.417343581204477	0	0	2733.0	1
555.24072265625	0.2	SCRAMBLED	0	0.527483519970701	0	0	2741.0	1
556.49072265625	0.2	SCRAMBLED	0	0.533393964109564	0	0	2749.0	1
557.84033203125	0.2	SCRAMBLED	0	0.359301939148281	0	0	2757.0	1
558.96044921875	0.2	SCRAMBLED	0	0.418161885376321	0	0	2765.0	1
560.0400390625	0.2	SCRAMBLED	0	0.497932204812969	0	0	2773.0	1
561.38037109375	0.2	SCRAMBLED	0	0.434853660590306	0	0	2781.0	1
562.7099609375	0.2	FACES	1	0.563634695252404	0	0	2789.0	1
563.9296875	0.2	FACES	1	0.400445645253058	0	0	2797.0	1
565.15966796875	0.2	FACES	1	0.428325639786635	0	0	2805.0	1
566.4697265625	0.2	SCRAMBLED	0	0.518176102319558	0	0	2813.0	1
567.7197265625	0.2	FACES	1	0.447080229729181	0	0	2821.0	1
568.9697265625	0.2	SCRAMBLED	0	0.348873767750774	0	0	2829.0	1
570.19921875	0.2	FACES	1	0.358642104059982	0	0	2837.0	1
571.2392578125	0.2	FACES	1	0.527474162747239	0	0	2845.0	1
572.54931640625	0.2	SCRAMBLED	0	0.453399071342574	0	0	2853.0	1
573.8193359375	0.2	FACES	1	0.393165424520703	0	0	2861.0	1
575.119140625	0.2	FACES	1	0.542981796581444	0	0	2869.0	1
576.3388671875	0.2	FACES	1	0.43689534610894	0	0	2877.0	1
577.60888671875	0.2	FACES	1	0.379055337103637	0	0	2885.0	1
578.68896484375	0.2	FACES	1	0.481629207090009	0	0	2893.0	1
579.95849609375	0.2	SCRAMBLED	0	0.633234015978815	0	0	2901.0	1
581.37841796875	0.2	SCRAMBLED	0	n/a	0	1	2909.0	0
n/a	0.2	SCRAMBLED	0	0.573903793869249	1	0	n/a	1
n/a	0.2	SCRAMBLED	0	0.3978808608299	1	0	n/a	1
n/a	0.2	SCRAMBLED	0	0.323817541411699	1	0	n/a	1
n/a	0.2	FACES	1	0.491466062412655	1	0	n/a	1
587.318359375	0.2	SCRAMBLED	0	0.487335603418614	0	0	2917.0	1
588.56787109375	0.2	FACES	1	0.492321493627969	0	0	2925.0	1
590.01806640625	0.2	SCRAMBLED	0	0.498171266746795	0	0	2933.0	1
591.34765625	0.2	SCRAMBLED	0	0.464888532842451	0	0	2941.0	1
592.587890625	0.2	SCRAMBLED	0	0.387491929395765	0	0	2949.0	1
593.7177734375	0.2	FACES	1	0.581506687845831	0	0	2957.0	1
595.0673828125	0.2	FACES	1	0.472238479975204	0	0	2965.0	1
596.4873046875	0.2	FACES	1	0.503335849720315	0	0	2973.0	1
597.80712890625	0.2	SCRAMBLED	0	0.708113526648958	0	0	2981.0	1
599.287109375	0.2	FACES	1	0.48886173617575	0	0	2989.0	1
600.5771484375	0.2	SCRAMBLED	0	0.454664409262477	0	0	2997.0	1
601.84716796875	0.2	SCRAMBLED	0	0.418457996183861	0	0	3005.0	1
602.94677734375	0.2	SCRAMBLED	0	0.392450653482229	0	0	3013.0	1
604.22705078125	0.2	SCRAMBLED	0	0.364394984651881	0	0	3021.0	1
605.2666015625	0.2	FACES	1	0.477164302861638	0	0	3029.0	1
606.62646484375	0.2	FACES	1	0.748992212076701	0	0	3037.0	1
608.12646484375	0.2	SCRAMBLED	0	0.547837893067481	0	0	3044.0	1
609.49658203125	0.2	FACES	1	0.732636391323467	0	0	3052.0	1
610.9365234375	0.2	SCRAMBLED	0	0.696367797994753	0	0	3060.0	1
612.416015625	0.2	FACES	1	0.477274476605089	0	0	3068.0	1
613.63623046875	0.2	FACES	1	0.367139367375785	0	0	3076.0	1
614.7060546875	0.2	SCRAMBLED	0	0.548008435991505	0	0	3084.0	1
616.18603515625	0.2	SCRAMBLED	0	0.512849428105255	0	0	3092.0	1
617.53564453125	0.2	SCRAMBLED	0	0.50361415162115	0	0	3100.0	1
n/a	0.2	FACES	1	0.438544933833327	1	0	n/a	1
n/a	0.2	SCRAMBLED	0	0.619082575674838	1	0	n/a	1
621.37548828125	0.2	SCRAMBLED	0	0.483160169384064	0	0	3108.0	1
622.525390625	0.2	FACES	1	0.500637951263343	0	0	3116.0	1
623.92529296875	0.2	FACES	1	0.453836446020432	0	0	3124.0	1
625.04541015625	0.2	FACES	1	0.37069511181835	0	0	3132.0	1
626.14501953125	0.2	FACES	1	0.337477576624224	0	0	3140.0	1
627.365234375	0.2	SCRAMBLED	0	0.544335575345031	0	0	3148.0	1
628.76513671875	0.2	FACES	1	0.383127539844281	0	0	3156.0	1
630.0146484375	0.2	FACES	1	0.610787247253029	0	0	3164.0	1
631.544921875	0.2	FACES	1	0.3488245668741	0	0	3170.0	1
632.61474609375	0.2	FACES	1	0.411689102369564	0	0	3178.0	1
633.7646484375	0.2	SCRAMBLED	0	0.541459889660473	0	0	3186.0	1
635.234375	0.2	FACES	1	0.378305853788333	0	0	3194.0	1
636.3544921875	0.2	SCRAMBLED	0	0.432167232273059	0	0	3202.0	1
637.6240234375	0.2	FACES	1	0.389055491043109	0	0	3210.0	1
638.77392578125	0.2	SCRAMBLED	0	0.45795845333123	0	0	3218.0	1
639.9541015625	0.2	SCRAMBLED	0	0.652656892696541	0	0	3226.0	1
641.27392578125	0.2	SCRAMBLED	0	0.767564788955497	0	0	3234.0	1
642.7236328125	0.2	FACES	1	0.567369434302236	0	0	3242.0	1
644.12353515625	0.2	FACES	1	n/a	0	1	3250.0	0
645.2138671875	0.2	FACES	1	0.567106224698364	0	0	3258.0	1
n/a	0.2	SCRAMBLED	0	0.612868474581774	1	0	n/a	1
647.943359375	0.2	FACES	1	0.732465848403081	0	0	3266.0	1
649.63330078125	0.2	SCRAMBLED	0	0.648468781135307	0	0	3272.0	1
651.13330078125	0.2	FACES	1	0.453324213565793	0	0	3279.0	1
652.55322265625	0.2	FACES	1	0.343137186839158	0	0	3287.0	1
653.5830078125	0.2	SCRAMBLED	0	0.492875682662998	0	0	3295.0	1
n/a	0.2	FACES	1	0.383663014428748	1	0	n/a	1
n/a	0.2	SCRAMBLED	0	0.554426283051725	1	0	n/a	1
657.53271484375	0.2	FACES	1	0.377541278179706	0	0	3303.0	1
658.62255859375	0.2	FACES	1	0.462316202272632	0	0	3311.0	1
659.8427734375	0.2	FACES	1	0.411873530199955	0	0	3319.0	1
661.20263671875	0.2	FACES	1	0.393900117389421	0	0	3327.0	1
662.3623046875	0.2	SCRAMBLED	0	0.797669085757661	0	0	3335.0	1
663.97216796875	0.2	SCRAMBLED	0	0.549775743606006	0	0	3341.0	1
665.3720703125	0.2	FACES	1	0.533287714359176	0	0	3349.0	1
666.8720703125	0.2	SCRAMBLED	0	0.518798810364387	0	0	3356.0	1
668.091796875	0.2	FACES	1	0.612942426821974	0	0	3364.0	1
669.36181640625	0.2	FACES	1	0.502925943019363	0	0	3372.0	1
670.78173828125	0.2	FACES	1	0.343807888380979	0	0	3380.0	1
680.80078125	0.2	FACES	1	0.63155514920436	0	0	3384.0	1
682.27099609375	0.2	SCRAMBLED	0	0.384362089484057	0	0	3392.0	1
683.37060546875	0.2	SCRAMBLED	0	0.397892029126524	0	0	3400.0	1
684.560546875	0.2	SCRAMBLED	0	0.443956426737714	0	0	3408.0	1
685.79052734375	0.2	SCRAMBLED	0	0.583846597095544	0	0	3416.0	1
687.0205078125	0.2	SCRAMBLED	0	0.316478460732469	0	0	3424.0	1
688.26025390625	0.2	FACES	1	0.443565536323149	0	0	3432.0	1
689.43017578125	0.2	FACES	1	0.396311564105417	0	0	3440.0	1
690.59033203125	0.2	FACES	1	0.601998098973127	0	0	3448.0	1
691.9501953125	0.2	SCRAMBLED	0	0.687966521669296	0	0	3456.0	1
693.39990234375	0.2	SCRAMBLED	0	0.477955139063852	0	0	3464.0	1
694.56005859375	0.2	SCRAMBLED	0	0.392790230092942	0	0	3472.0	1
695.86962890625	0.2	SCRAMBLED	0	0.428589754927089	0	0	3480.0	1
697.1494140625	0.2	FACES	1	0.77332098984698	0	0	3488.0	1
698.87939453125	0.2	SCRAMBLED	0	0.589153651322704	0	0	3493.0	1
700.41943359375	0.2	SCRAMBLED	0	0.434784537883388	0	0	3499.0	1
701.59912109375	0.2	FACES	1	0.421832934945996	0	0	3507.0	1
702.79931640625	0.2	FACES	1	0.357408158110047	0	0	3515.0	1
703.958984375	0.2	FACES	1	0.328479249154043	0	0	3523.0	1
704.93896484375	0.2	SCRAMBLED	0	0.487373334148288	0	0	3533.0	1
706.369140625	0.2	SCRAMBLED	0	0.372926960240875	0	0	3541.0	1
707.52880859375	0.2	SCRAMBLED	0	0.394094204286375	0	0	3549.0	1
708.87890625	0.2	SCRAMBLED	0	0.298897447562922	0	0	3557.0	1
709.9384765625	0.2	SCRAMBLED	0	0.346814273325435	0	0	3565.0	1
710.94873046875	0.2	SCRAMBLED	0	0.376615215023776	0	0	3573.0	1
712.19873046875	0.2	SCRAMBLED	0	0.528484139056673	0	0	3581.0	1
713.37841796875	0.2	FACES	1	0.382295350758795	0	0	3589.0	1
714.54833984375	0.2	FACES	1	0.438243087955925	0	0	3597.0	1
715.818359375	0.2	SCRAMBLED	0	0.434044713634648	0	0	3605.0	1
717.078125	0.2	FACES	1	0.648790246996214	0	0	3613.0	1
718.4677734375	0.2	SCRAMBLED	0	0.58261053822207	0	0	3621.0	1
719.89794921875	0.2	SCRAMBLED	0	0.428502823313465	0	0	3629.0	1
721.09765625	0.2	SCRAMBLED	0	0.337080045603216	0	0	3637.0	1
722.36767578125	0.2	SCRAMBLED	0	0.32329504619338	0	0	3645.0	1
723.607421875	0.2	SCRAMBLED	0	0.319047169155965	0	0	3653.0	1
724.83740234375	0.2	SCRAMBLED	0	0.29895932596628	0	0	3661.0	1
725.83740234375	0.2	FACES	1	0.491785415353661	0	0	3670.0	1
727.1875	0.2	FACES	1	0.583401374424284	0	0	3678.0	1
728.6572265625	0.2	FACES	1	0.398324574271101	0	0	3686.0	1
729.72705078125	0.2	SCRAMBLED	0	0.507271014434082	0	0	3694.0	1
731.126953125	0.2	FACES	1	0.414099039859138	0	0	3702.0	1
732.3271484375	0.2	SCRAMBLED	0	0.314724132487754	0	0	3710.0	1
733.5068359375	0.2	SCRAMBLED	0	n/a	0	1	3718.0	0
n/a	0.2	FACES	1	0.922577437806467	1	0	n/a	1
n/a	0.2	SCRAMBLED	0	0.457337254512822	1	0	n/a	1
737.54638671875	0.2	FACES	1	0.477138042268052	0	0	3726.0	1
738.96630859375	0.2	SCRAMBLED	0	0.544070252813981	0	0	3734.0	1
740.38623046875	0.2	FACES	1	0.56781978834988	0	0	3742.0	1
741.736328125	0.2	FACES	1	0.468485932022304	0	0	3750.0	1
742.916015625	0.2	FACES	1	0.382548599449365	0	0	3758.0	1
743.98583984375	0.2	FACES	1	0.396334504392144	0	0	3766.0	1
745.0361328125	0.2	SCRAMBLED	0	0.628248427608924	0	0	3774.0	1
746.32568359375	0.2	SCRAMBLED	0	0.606982178112958	0	0	3782.0	1
747.7255859375	0.2	SCRAMBLED	0	0.424976659767708	0	0	3790.0	1
748.82568359375	0.2	FACES	1	0.497816295996017	0	0	3798.0	1
750.03564453125	0.2	SCRAMBLED	0	0.546579195757658	0	0	3806.0	1
751.525390625	0.2	FACES	1	0.458544939869171	0	0	3814.0	1
752.9453125	0.2	SCRAMBLED	0	0.478260003397736	0	0	3822.0	1
754.375	0.2	FACES	1	0.572075513387972	0	0	3830.0	1
755.8251953125	0.2	FACES	1	0.5687120447692	0	0	3838.0	1
757.2451171875	0.2	FACES	1	0.473847620352899	0	0	3846.0	1
758.5849609375	0.2	FACES	1	0.572520132365753	0	0	3854.0	1
759.8447265625	0.2	FACES	1	0.532292830346705	0	0	3862.0	1
761.11474609375	0.2	SCRAMBLED	0	0.530287668174424	0	0	3870.0	1
762.40478515625	0.2	SCRAMBLED	0	0.626953508792212	0	0	3878.0	1
763.7646484375	0.2	FACES	1	0.556984125018062	0	0	3886.0	1
765.1142578125	0.2	SCRAMBLED	0	0.703665223943972	0	0	3894.0	1
766.55419921875	0.2	FACES	1	0.967525911204575	0	0	3902.0	1
768.42431640625	0.2	FACES	1	0.511221875131014	0	0	3907.0	1
769.833984375	0.2	SCRAMBLED	0	0.577937662183103	0	0	3915.0	1
771.09375	0.2	SCRAMBLED	0	0.518534091530455	0	0	3923.0	1
772.34375	0.2	SCRAMBLED	0	n/a	0	1	3931.0	0
773.84375	0.2	FACES	1	0.538716110630048	0	0	3938.0	1
775.16357421875	0.2	FACES	1	0.417323961220973	0	0	3946.0	1
776.513671875	0.2	FACES	1	0.368378746548842	0	0	3954.0	1
777.84326171875	0.2	SCRAMBLED	0	0.568013271556993	0	0	3962.0	1
779.193359375	0.2	SCRAMBLED	0	0.454804767596215	0	0	3970.0	1
780.533203125	0.2	FACES	1	0.608888334834774	0	0	3978.0	1
782.05322265625	0.2	SCRAMBLED	0	0.487539349382132	0	0	3984.0	1
783.31298828125	0.2	FACES	1	0.558288702904974	0	0	3992.0	1
784.5830078125	0.2	FACES	1	0.402119682494231	0	0	4000.0	1
785.802734375	0.2	SCRAMBLED	0	0.678770786995301	0	0	4008.0	1
787.32275390625	0.2	FACES	1	0.55797327396067	0	0	4014.0	1
788.6025390625	0.2	FACES	1	0.56660395315339	0	0	4022.0	1
789.95263671875	0.2	FACES	1	0.808483318032813	0	0	4030.0	1
791.572265625	0.2	SCRAMBLED	0	0.529176875345001	0	0	4036.0	1
792.85205078125	0.2	FACES	1	n/a	0	1	4044.0	0
794.921875	0.2	FACES	1	0.58294830376326	0	0	4046.0	1
796.412109375	0.2	SCRAMBLED	0	0.618715229244117	0	0	4054.0	1
797.9619140625	0.2	FACES	1	0.738560116682493	0	0	4060.0	1
799.36181640625	0.2	FACES	1	0.472309413758921	0	0	4068.0	1
800.69189453125	0.2	FACES	1	0.433301870933064	0	0	4076.0	1
802.03173828125	0.2	SCRAMBLED	0	0.498851023665338	0	0	4084.0	1
803.41162109375	0.2	SCRAMBLED	0	0.424843243890791	0	0	4092.0	1
804.55126953125	0.2	FACES	1	0.431713557922194	0	0	4100.0	1
805.8212890625	0.2	FACES	1	0.488539062931522	0	0	4108.0	1
807.17138671875	0.2	SCRAMBLED	0	0.428301190266211	0	0	4116.0	1
808.2509765625	0.2	SCRAMBLED	0	0.478123870911077	0	0	4124.0	1
809.43115234375	0.2	FACES	1	0.490884103557619	0	0	4132.0	1
810.6708984375	0.2	FACES	1	0.574862758225208	0	0	4140.0	1
811.95068359375	0.2	SCRAMBLED	0	0.497628246012027	0	0	4148.0	1
813.25048828125	0.2	FACES	1	0.642488308756583	0	0	4156.0	1
814.6904296875	0.2	SCRAMBLED	0	0.544275809861574	0	0	4164.0	1
816.140625	0.2	SCRAMBLED	0	0.397700960682414	0	0	4172.0	1
817.37060546875	0.2	FACES	1	0.628989157394244	0	0	4180.0	1
818.7900390625	0.2	SCRAMBLED	0	0.44364341256005	0	0	4188.0	1
820.14013671875	0.2	SCRAMBLED	0	0.588420467687683	0	0	4196.0	1
821.39013671875	0.2	FACES	1	0.491476023325959	0	0	4204.0	1
822.60009765625	0.2	SCRAMBLED	0	0.447290012612939	0	0	4212.0	1
823.75	0.2	SCRAMBLED	0	0.598222610729863	0	0	4220.0	1
825.25	0.2	FACES	1	0.423614429320878	0	0	4227.0	1
826.57958984375	0.2	SCRAMBLED	0	0.409858407118008	0	0	4235.0	1
n/a	0.2	SCRAMBLED	0	0.503742737964785	1	0	n/a	1
n/a	0.2	FACES	1	0.591332676718594	1	0	n/a	1
830.66943359375	0.2	FACES	1	0.54728068557597	0	0	4243.0	1
832.09912109375	0.2	FACES	1	0.658083176043874	0	0	4251.0	1
833.6689453125	0.2	SCRAMBLED	0	0.407973681452859	0	0	4257.0	1
834.80908203125	0.2	FACES	1	0.506754556136002	0	0	4265.0	1
836.10888671875	0.2	FACES	1	0.508550539110729	0	0	4273.0	1
837.55859375	0.2	FACES	1	0.394534295577614	0	0	4281.0	1
838.8388671875	0.2	FACES	1	0.438124462525593	0	0	4289.0	1
839.9384765625	0.2	SCRAMBLED	0	0.448078132201772	0	0	4297.0	1
841.28857421875	0.2	SCRAMBLED	0	n/a	0	1	4305.0	0
n/a	0.2	FACES	1	0.518833522641216	1	0	n/a	1
n/a	0.2	SCRAMBLED	0	0.422353317240777	1	0	n/a	1
844.79833984375	0.2	SCRAMBLED	0	n/a	0	1	4313.0	0
846.328125	0.2	FACES	1	0.692282615880686	0	0	4319.0	1
847.748046875	0.2	FACES	1	0.607041641753312	0	0	4327.0	1
849.06787109375	0.2	FACES	1	0.480664809507289	0	0	4335.0	1
850.19775390625	0.2	FACES	1	0.53275254161781	0	0	4343.0	1
851.44775390625	0.2	SCRAMBLED	0	0.617580892430851	0	0	4351.0	1
852.94775390625	0.2	FACES	1	0.458500568525778	0	0	4358.0	1
854.21728515625	0.2	SCRAMBLED	0	0.428328658243117	0	0	4366.0	1
855.33740234375	0.2	FACES	1	0.587165392524184	0	0	4374.0	1
856.6171875	0.2	FACES	1	0.571983450394328	0	0	4382.0	1
857.9072265625	0.2	SCRAMBLED	0	0.537626447010553	0	0	4390.0	1
859.4072265625	0.2	FACES	1	0.442515414513764	0	0	4397.0	1
860.6572265625	0.2	SCRAMBLED	0	0.639538368985086	0	0	4405.0	1
862.0068359375	0.2	FACES	1	0.480297764919669	0	0	4413.0	1
863.19677734375	0.2	SCRAMBLED	0	0.53717367819263	0	0	4421.0	1
864.69677734375	0.2	SCRAMBLED	0	0.570019037419115	0	0	4428.0	1
866.04638671875	0.2	FACES	1	0.435668040769087	0	0	4436.0	1
867.24658203125	0.2	SCRAMBLED	0	0.367689028720633	0	0	4444.0	1
868.4462890625	0.2	SCRAMBLED	0	0.493451906444534	0	0	4452.0	1
869.7861328125	0.2	FACES	1	0.448194342865463	0	0	4460.0	1
871.0361328125	0.2	FACES	1	n/a	0	1	4468.0	0
n/a	0.2	FACES	1	0.458963901950483	1	0	n/a	1
n/a	0.2	SCRAMBLED	0	0.446925986485439	1	0	n/a	1
n/a	0.2	FACES	1	0.506537528952322	1	0	n/a	1
n/a	0.2	SCRAMBLED	0	0.678480713108002	1	0	n/a	1
