onset	duration	trial_type	trial_type_id	response_time	repsonse_accuracy	bad_epoch	outliers	event_num
38.45703125	0.2	FACES	1	0.623601652797333	1	0	0	1
39.92724609375	0.2	SCRAMBLED	0	0.563414428742362	1	0	0	9
41.447265625	0.2	SCRAMBLED	0	0.464281908848534	1	0	0	15
42.61669921875	0.2	SCRAMBLED	0	0.545082312359227	1	0	0	23
43.86669921875	0.2	FACES	1	0.650906795768606	1	0	0	31
45.44677734375	0.2	SCRAMBLED	0	0.58783390769895	1	0	0	37
46.98681640625	0.2	SCRAMBLED	0	0.558574904563102	1	0	0	43
48.396484375	0.2	FACES	1	0.600479213409017	1	0	0	51
49.81640625	0.2	SCRAMBLED	0	0.602128509243812	1	0	0	59
51.1865234375	0.2	SCRAMBLED	0	0.71689281599447	1	0	0	67
52.55615234375	0.2	FACES	1	0.719839453245186	1	0	0	75
53.98583984375	0.2	SCRAMBLED	0	0.547385712159667	1	0	0	83
55.18603515625	0.2	FACES	1	0.580503536296419	1	0	0	91
56.505859375	0.2	FACES	1	0.454353232441463	1	0	0	99
57.85595703125	0.2	FACES	1	0.408150008647681	1	0	0	107
58.92578125	0.2	FACES	1	0.438968357003432	1	0	0	115
60.10546875	0.2	FACES	1	0.432845376402838	1	0	0	123
61.275390625	0.2	SCRAMBLED	0	0.559674233888472	1	0	0	131
62.5751953125	0.2	FACES	1	0.474590913358043	1	0	0	139
63.87548828125	0.2	SCRAMBLED	0	0.559338881093026	1	0	0	147
65.275390625	0.2	FACES	1	0.501162868265055	1	0	0	155
66.615234375	0.2	FACES	1	0.432898803445823	1	0	0	163
67.89501953125	0.2	FACES	1	0.478859643535543	1	0	0	171
69.26513671875	0.2	FACES	1	0.448434904580608	1	0	0	179
70.56494140625	0.2	FACES	1	0.471595074931429	1	0	0	187
71.884765625	0.2	FACES	1	0.447310823745283	1	0	0	195
73.0546875	0.2	SCRAMBLED	0	0.714176790386773	1	0	0	203
74.62451171875	0.2	FACES	1	0.582006134149196	1	0	0	209
76.0341796875	0.2	FACES	1	0.466834333003135	1	0	0	217
77.43408203125	0.2	FACES	1	0.485660272224777	1	0	0	225
78.654296875	0.2	SCRAMBLED	0	0.570371414540205	1	0	0	233
80.1240234375	0.2	FACES	1	0.566360160450131	1	0	0	241
81.59375	0.2	FACES	1	0.603143924908181	1	0	0	249
82.9140625	0.2	SCRAMBLED	0	0.54590545103747	1	0	0	257
84.1435546875	0.2	SCRAMBLED	0	0.479810765639741	1	0	0	265
85.2734375	0.2	FACES	1	0.561334094391896	1	0	0	273
86.59375	0.2	FACES	1	0.52042588295717	1	0	0	281
87.93359375	0.2	SCRAMBLED	0	0.589208823974332	1	0	0	289
89.283203125	0.2	FACES	1	0.484087042010287	1	0	0	297
90.51318359375	0.2	SCRAMBLED	0	0.652275675090095	1	0	0	305
92.0029296875	0.2	SCRAMBLED	0	0.450836404885194	1	0	0	313
93.18310546875	0.2	SCRAMBLED	0	0.382597393424476	1	0	0	321
94.40283203125	0.2	SCRAMBLED	0	0.332442379538406	1	0	0	329
95.68310546875	0.2	SCRAMBLED	0	0.463314185120907	1	0	0	337
96.87255859375	0.2	FACES	1	0.517130611612629	1	0	0	345
98.0927734375	0.2	FACES	1	0.441882394702588	1	0	0	353
99.3427734375	0.2	FACES	1	0.325854553478166	1	0	0	361
100.552734375	0.2	SCRAMBLED	0	0.753621342322731	1	0	0	369
102.16259765625	0.2	SCRAMBLED	0	0.640391629280202	1	0	0	375
103.4921875	0.2	FACES	1	0.602335274918914	1	0	0	383
104.8623046875	0.2	FACES	1	0.302101252395914	1	0	0	391
105.88232421875	0.2	FACES	1	0.382064632233778	1	0	0	399
107.091796875	0.2	SCRAMBLED	0	0.472833857894329	1	0	0	407
108.33203125	0.2	FACES	1	0.621641151983567	1	0	0	415
109.91162109375	0.2	SCRAMBLED	0	NaN	0	0	1	421
111.2314453125	0.2	FACES	1	0.513293221798449	1	0	0	429
112.5517578125	0.2	SCRAMBLED	0	0.486086179329504	1	0	0	437
114.00146484375	0.2	SCRAMBLED	0	0.53899615717728	1	0	0	445
115.2314453125	0.2	FACES	1	0.479783297499125	1	0	0	453
116.4013671875	0.2	SCRAMBLED	0	0.462671249520099	1	0	0	461
117.7509765625	0.2	SCRAMBLED	0	0.552424757668632	1	0	0	469
119.0009765625	0.2	SCRAMBLED	0	0.422345604146358	1	0	0	477
120.35107421875	0.2	SCRAMBLED	0	0.331112740418575	1	0	0	485
121.61083984375	0.2	FACES	1	0.510874516176045	1	0	0	493
122.82080078125	0.2	SCRAMBLED	0	0.55779372271536	1	0	0	501
124.29052734375	0.2	SCRAMBLED	0	0.506622085773415	1	0	0	509
125.49072265625	0.2	SCRAMBLED	0	0.562405050032794	1	0	0	517
127.01025390625	0.2	SCRAMBLED	0	0.436224259559822	1	0	0	523
128.13037109375	0.2	SCRAMBLED	0	NaN	0	0	1	531
130.01025390625	0.2	SCRAMBLED	0	0.501108535679123	1	0	0	533
131.31005859375	0.2	FACES	1	0.51965073806241	1	0	0	541
132.5	0.2	FACES	1	0.501596925259037	1	0	0	549
133.72998046875	0.2	SCRAMBLED	0	0.532259520201478	1	0	0	557
134.94970703125	0.2	FACES	1	0.562057019634267	1	0	0	565
136.2998046875	0.2	FACES	1	0.497827753024467	1	0	0	573
137.51953125	0.2	SCRAMBLED	0	0.437779982607935	1	0	0	581
138.83935546875	0.2	FACES	1	0.487840518163466	1	0	0	589
140.099609375	0.2	FACES	1	0.648629354869627	1	0	0	597
141.41943359375	0.2	SCRAMBLED	0	0.555370187529661	1	0	0	605
142.6591796875	0.2	SCRAMBLED	0	0.621038965820844	1	0	0	613
144.109375	0.2	SCRAMBLED	0	0.444098560518796	1	0	0	621
145.35888671875	0.2	FACES	1	0.382867848963542	1	0	0	629
146.67919921875	0.2	FACES	1	0.435839705589387	1	0	0	637
147.87890625	0.2	FACES	1	0.489576444289014	1	0	0	645
149.27880859375	0.2	FACES	1	0.46140620580718	1	0	0	653
150.52880859375	0.2	FACES	1	0.422218526265169	1	0	0	661
151.728515625	0.2	SCRAMBLED	0	0.477947157937706	1	0	0	669
152.978515625	0.2	SCRAMBLED	0	0.4790163024918	1	0	0	677
154.3681640625	0.2	FACES	1	0.515805198360795	1	0	0	685
155.828125	0.2	SCRAMBLED	0	0.596586283617398	1	0	0	693
157.1181640625	0.2	FACES	1	0.763395472707089	1	0	0	701
158.56787109375	0.2	SCRAMBLED	0	0.698270623970529	1	0	0	709
159.998046875	0.2	SCRAMBLED	0	0.651908628286037	1	0	0	717
161.5078125	0.2	SCRAMBLED	0	0.377864421483537	1	0	0	723
162.7578125	0.2	SCRAMBLED	0	0.418648573513565	1	0	0	731
163.81787109375	0.2	FACES	1	0.531583381352903	1	0	0	739
165.28759765625	0.2	FACES	1	0.648594944232173	1	0	0	747
166.857421875	0.2	FACES	1	0.493117419660848	1	0	0	753
168.2275390625	0.2	SCRAMBLED	0	0.524566026015236	1	0	0	761
169.6572265625	0.2	SCRAMBLED	0	0.608847639053238	1	0	0	769
171.20703125	0.2	SCRAMBLED	0	0.503604212466598	1	0	0	775
172.376953125	0.2	SCRAMBLED	0	0.777363776886887	1	0	0	783
174.0966796875	0.2	SCRAMBLED	0	0.783128766115624	1	0	0	788
175.56689453125	0.2	SCRAMBLED	0	0.542907801525871	1	0	0	796
177.06640625	0.2	SCRAMBLED	0	0.349936868553414	1	0	0	803
178.0966796875	0.2	SCRAMBLED	0	0.792517436987509	1	0	0	811
179.6865234375	0.2	SCRAMBLED	0	0.44242028730423	1	0	0	817
181.01611328125	0.2	SCRAMBLED	0	0.404242590167087	1	0	0	825
182.13623046875	0.2	SCRAMBLED	0	0.508205880657442	1	0	0	833
183.56591796875	0.2	SCRAMBLED	0	0.373963643651223	1	0	0	841
184.65625	0.2	SCRAMBLED	0	0.455875148546511	1	0	0	849
185.826171875	0.2	SCRAMBLED	0	0.417685075653026	1	0	0	857
187.15576171875	0.2	FACES	1	0.563509812615848	1	0	0	865
188.3857421875	0.2	SCRAMBLED	0	0.542380171745208	1	0	0	873
189.69580078125	0.2	FACES	1	0.42102471860926	1	0	0	881
190.845703125	0.2	FACES	1	0.408056435860999	1	0	0	889
192.1953125	0.2	FACES	1	0.36888143392116	1	0	0	897
193.4755859375	0.2	FACES	1	0.298524055299822	1	0	0	905
194.615234375	0.2	FACES	1	0.335644983638304	1	0	0	913
195.9150390625	0.2	SCRAMBLED	0	NaN	0	0	1	921
197.044921875	0.2	FACES	1	NaN	0	0	1	929
198.21484375	0.2	FACES	1	0.421093841733637	1	0	0	937
199.4150390625	0.2	FACES	1	0.336966774718348	1	0	0	945
200.46484375	0.2	FACES	1	0.381821342986768	1	0	0	953
201.53466796875	0.2	FACES	1	0.446695054436532	1	0	0	961
202.86474609375	0.2	SCRAMBLED	0	0.692440435638673	1	0	0	969
204.2646484375	0.2	FACES	1	0.629359095833024	1	0	0	977
205.63427734375	0.2	FACES	1	0.564124374534003	1	0	0	985
207.00439453125	0.2	FACES	1	0.481897438791748	1	0	0	993
208.154296875	0.2	SCRAMBLED	0	0.583825672086277	1	0	0	1001
209.42431640625	0.2	FACES	1	0.46265162941927	1	0	0	1009
210.64404296875	0.2	FACES	1	0.534460291784853	1	0	0	1017
211.8740234375	0.2	SCRAMBLED	0	0.624305561634174	1	0	0	1025
213.2236328125	0.2	SCRAMBLED	0	0.423204360853561	1	0	0	1033
214.41357421875	0.2	FACES	1	0.61895138712589	1	0	0	1041
215.9736328125	0.2	SCRAMBLED	0	0.577762759176949	1	0	0	1047
217.24365234375	0.2	SCRAMBLED	0	1.00247273636069	1	0	0	1055
219.08349609375	0.2	FACES	1	0.587408302441872	1	0	0	1059
220.4931640625	0.2	FACES	1	0.638158559993826	1	0	0	1067
222.00341796875	0.2	FACES	1	0.414100030517147	1	0	0	1073
223.31298828125	0.2	SCRAMBLED	0	0.529858925439839	1	0	0	1081
224.623046875	0.2	SCRAMBLED	0	0.743701117651653	1	0	0	1089
226.123046875	0.2	SCRAMBLED	0	0.48744328659086	1	0	0	1096
227.37255859375	0.2	FACES	1	0.672388391058121	1	0	0	1104
228.9228515625	0.2	SCRAMBLED	0	0.57373007390197	1	0	0	1110
230.45263671875	0.2	FACES	1	0.682885748532499	1	0	0	1116
231.92236328125	0.2	FACES	1	0.428808767105693	1	0	0	1124
233.162109375	0.2	FACES	1	0.422444610192542	1	0	0	1132
234.42236328125	0.2	SCRAMBLED	0	0.482381300655106	1	0	0	1140
235.7822265625	0.2	FACES	1	0.587387173102798	1	0	0	1148
NaN	0.2	FACES	1	0.470668100644616	1	1	0	NaN
NaN	0.2	SCRAMBLED	0	0.50283510452482	1	1	0	NaN
271.7392578125	0.2	FACES	1	0.61664798732545	1	0	0	1155
273.26904296875	0.2	SCRAMBLED	0	0.868369349297609	1	0	0	1161
274.869140625	0.2	SCRAMBLED	0	0.902191082272111	1	0	0	1167
276.458984375	0.2	FACES	1	0.477632934482244	1	0	0	1173
277.8388671875	0.2	FACES	1	0.309842438518899	1	0	0	1181
279.07861328125	0.2	SCRAMBLED	0	0.439652042045054	1	0	0	1189
280.228515625	0.2	SCRAMBLED	0	0.467577783888373	1	0	0	1197
281.3984375	0.2	FACES	1	0.621356207753706	1	0	0	1205
282.8984375	0.2	FACES	1	0.357170648691863	1	0	0	1212
284.0986328125	0.2	SCRAMBLED	0	0.503962807533753	1	0	0	1220
285.34814453125	0.2	FACES	1	0.611861588340616	1	0	0	1228
286.818359375	0.2	FACES	1	NaN	0	0	1	1236
288.318359375	0.2	FACES	1	0.628087109624175	1	0	0	1243
289.68798828125	0.2	SCRAMBLED	0	0.582393404748473	1	0	0	1251
291.09814453125	0.2	SCRAMBLED	0	0.453126221539605	1	0	0	1259
292.41796875	0.2	FACES	1	0.454976246095612	1	0	0	1267
293.61767578125	0.2	SCRAMBLED	0	0.602918746523756	1	0	0	1275
294.98779296875	0.2	SCRAMBLED	0	0.483591106239146	1	0	0	1283
296.1376953125	0.2	SCRAMBLED	0	0.598198452185898	1	0	0	1291
297.67724609375	0.2	FACES	1	0.607300065893469	1	0	0	1297
299.1572265625	0.2	SCRAMBLED	0	0.68313839505754	1	0	0	1305
300.80712890625	0.2	FACES	1	0.482960848240509	1	0	0	1311
302.2470703125	0.2	FACES	1	0.373669643991889	1	0	0	1319
303.296875	0.2	SCRAMBLED	0	0.992504517905218	1	0	0	1327
305.02685546875	0.2	FACES	1	0.507355575685324	1	0	0	1331
306.31689453125	0.2	FACES	1	0.448187087619772	1	0	0	1339
307.73681640625	0.2	SCRAMBLED	0	0.458982670621481	1	0	0	1347
308.99658203125	0.2	SCRAMBLED	0	0.657849594724212	1	0	0	1355
310.4365234375	0.2	FACES	1	0.52838590866304	1	0	0	1363
311.90625	0.2	SCRAMBLED	0	0.623404546248821	1	0	0	1371
313.30615234375	0.2	FACES	1	0.677870850839099	1	0	0	1379
314.7060546875	0.2	SCRAMBLED	0	NaN	0	0	1	1387
316.576171875	0.2	FACES	1	0.527611367464488	1	0	0	1389
318.02587890625	0.2	SCRAMBLED	0	0.608698828135857	1	0	0	1397
319.4755859375	0.2	FACES	1	0.453437124671837	1	0	0	1405
320.595703125	0.2	SCRAMBLED	0	0.618393572575769	1	0	0	1413
321.92578125	0.2	SCRAMBLED	0	0.797014364026836	1	0	0	1421
323.67529296875	0.2	FACES	1	0.444407350715665	1	0	0	1426
324.96533203125	0.2	FACES	1	0.467675280695403	1	0	0	1434
NaN	0.2	SCRAMBLED	0	0.682785535095718	1	1	0	NaN
NaN	0.2	FACES	1	0.380344704036361	1	1	0	NaN
329.01513671875	0.2	FACES	1	0.417300219835852	1	0	0	1442
330.1650390625	0.2	FACES	1	0.536978305300181	1	0	0	1450
331.65478515625	0.2	SCRAMBLED	0	0.521525815976929	1	0	0	1458
332.83447265625	0.2	SCRAMBLED	0	0.606876271722285	1	0	0	1466
334.20458984375	0.2	SCRAMBLED	0	0.657400445345957	1	0	0	1474
335.6044921875	0.2	FACES	1	0.492447015918515	1	0	0	1482
336.80419921875	0.2	FACES	1	0.541078604461291	1	0	0	1490
338.2041015625	0.2	FACES	1	0.493759751567268	1	0	0	1498
339.59423828125	0.2	FACES	1	0.499013108943473	1	0	0	1506
340.7939453125	0.2	FACES	1	0.799675453353302	1	0	0	1514
342.55419921875	0.2	SCRAMBLED	0	0.517344923479868	1	0	0	1519
343.7236328125	0.2	FACES	1	0.562364602440539	1	0	0	1527
345.07373046875	0.2	FACES	1	0.398169716284428	1	0	0	1535
346.263671875	0.2	SCRAMBLED	0	0.584822071345116	1	0	0	1543
347.71337890625	0.2	SCRAMBLED	0	0.577867198481727	1	0	0	1551
348.99365234375	0.2	SCRAMBLED	0	0.427675932686725	1	0	0	1559
350.193359375	0.2	FACES	1	0.468483628837021	1	0	0	1567
351.36328125	0.2	SCRAMBLED	0	0.463210047664688	1	0	0	1575
352.783203125	0.2	FACES	1	0.523174206268777	1	0	0	1583
354.26318359375	0.2	SCRAMBLED	0	0.498960889291084	1	0	0	1591
355.52294921875	0.2	SCRAMBLED	0	0.536867829042421	1	0	0	1599
356.9228515625	0.2	FACES	1	0.583636111730812	1	0	0	1607
358.33251953125	0.2	SCRAMBLED	0	0.973459437253041	1	0	0	1615
360.052734375	0.2	SCRAMBLED	0	0.572188537696093	1	0	0	1620
361.572265625	0.2	FACES	1	0.534097169001143	1	0	0	1626
362.9423828125	0.2	SCRAMBLED	0	0.663907979917894	1	0	0	1634
364.29248046875	0.2	FACES	1	0.456795784032693	1	0	0	1642
365.662109375	0.2	FACES	1	0.472484318256647	1	0	0	1650
366.7919921875	0.2	SCRAMBLED	0	0.597695272069359	1	0	0	1658
368.18212890625	0.2	SCRAMBLED	0	0.532913322319473	1	0	0	1666
369.6318359375	0.2	SCRAMBLED	0	0.429136875555741	1	0	0	1674
NaN	0.2	FACES	1	0.538925826662307	1	1	0	NaN
NaN	0.2	FACES	1	0.926392325341112	1	1	0	NaN
374.08154296875	0.2	FACES	1	0.450425288317092	1	0	0	1680
375.3515625	0.2	SCRAMBLED	0	0.667389491292852	1	0	0	1688
376.83154296875	0.2	SCRAMBLED	0	0.558034899027007	1	0	0	1696
378.201171875	0.2	SCRAMBLED	0	0.488898796201283	1	0	0	1704
379.62109375	0.2	FACES	1	0.55876355937653	1	0	0	1712
380.8408203125	0.2	SCRAMBLED	0	0.977481557859392	1	0	0	1720
382.69091796875	0.2	SCRAMBLED	0	0.428151946510297	1	0	0	1725
383.99072265625	0.2	FACES	1	0.557020992601792	1	0	0	1733
385.5107421875	0.2	FACES	1	0.42397980759597	1	0	0	1739
386.84033203125	0.2	SCRAMBLED	0	0.958826162588593	1	0	0	1747
388.6103515625	0.2	SCRAMBLED	0	0.428304379599467	1	0	0	1752
389.79052734375	0.2	FACES	1	0.551468806002049	1	0	0	1760
391.22998046875	0.2	FACES	1	0.37792811134841	1	0	0	1768
392.5	0.2	FACES	1	0.375177976949999	1	0	0	1776
393.6298828125	0.2	SCRAMBLED	0	0.547057301861969	1	0	0	1784
395.080078125	0.2	SCRAMBLED	0	NaN	0	0	1	1792
396.2197265625	0.2	SCRAMBLED	0	0.783396505026758	1	0	0	1800
397.7998046875	0.2	FACES	1	0.513410640553957	1	0	0	1806
399.06982421875	0.2	FACES	1	0.472320716803551	1	0	0	1814
400.3193359375	0.2	SCRAMBLED	0	0.717072113528047	1	0	0	1822
401.939453125	0.2	SCRAMBLED	0	0.448876809615285	1	0	0	1828
403.1591796875	0.2	SCRAMBLED	0	0.43769093753599	1	0	0	1836
404.5390625	0.2	FACES	1	0.49342500246803	1	0	0	1844
405.97900390625	0.2	FACES	1	0.478405664593993	1	0	0	1852
407.38916015625	0.2	SCRAMBLED	0	0.693066769616962	1	0	0	1860
408.98876953125	0.2	SCRAMBLED	0	0.358974490549372	1	0	0	1866
410.30859375	0.2	SCRAMBLED	0	0.418676947197127	1	0	0	1874
411.49853515625	0.2	SCRAMBLED	0	0.417671794354646	1	0	0	1882
412.8583984375	0.2	SCRAMBLED	0	0.398461904857868	1	0	0	1890
414.1484375	0.2	FACES	1	0.56839099177796	1	0	0	1898
415.62841796875	0.2	FACES	1	0.463181975828775	1	0	0	1906
416.79833984375	0.2	SCRAMBLED	0	0.687904570246246	1	0	0	1914
418.39794921875	0.2	SCRAMBLED	0	0.818735626389753	1	0	0	1920
420.0478515625	0.2	FACES	1	0.628447515778134	1	0	0	1926
421.51806640625	0.2	SCRAMBLED	0	0.593424428957405	1	0	0	1934
423.06787109375	0.2	FACES	1	0.524173925852665	1	0	0	1940
424.35791015625	0.2	FACES	1	0.401983260129782	1	0	0	1948
425.62744140625	0.2	SCRAMBLED	0	0.568817502578895	1	0	0	1956
426.8876953125	0.2	FACES	1	0.561684237723966	1	0	0	1964
428.25732421875	0.2	FACES	1	0.343220757221388	1	0	0	1972
429.38720703125	0.2	SCRAMBLED	0	0.613127537595574	1	0	0	1980
430.7470703125	0.2	SCRAMBLED	0	0.562291253449985	1	0	0	1988
432.2568359375	0.2	FACES	1	0.52294963157965	1	0	0	1994
433.6767578125	0.2	SCRAMBLED	0	NaN	0	0	1	2002
435.01708984375	0.2	FACES	1	NaN	0	0	1	2010
436.86669921875	0.2	SCRAMBLED	0	NaN	0	0	1	2015
438.86669921875	0.2	FACES	1	0.58412963272076	1	0	0	2017
440.1865234375	0.2	FACES	1	0.507066405588375	1	0	0	2025
441.4462890625	0.2	SCRAMBLED	0	0.617717433727194	1	0	0	2033
442.93603515625	0.2	SCRAMBLED	0	0.588509744699877	1	0	0	2041
444.18603515625	0.2	FACES	1	0.522396948440473	1	0	0	2049
445.52587890625	0.2	FACES	1	0.432231418179981	1	0	0	2057
446.755859375	0.2	SCRAMBLED	0	NaN	0	0	1	2065
448.755859375	0.2	FACES	1	0.541506322652822	1	0	0	2067
450.2255859375	0.2	FACES	1	0.737665974731499	1	0	0	2075
451.74560546875	0.2	FACES	1	0.358467990107783	1	0	0	2081
452.8955078125	0.2	FACES	1	0.468249093174563	1	0	0	2089
454.115234375	0.2	SCRAMBLED	0	0.558868602375696	1	0	0	2097
455.615234375	0.2	FACES	1	0.59792860034122	1	0	0	2104
456.865234375	0.2	FACES	1	0.531484979002016	1	0	0	2112
458.294921875	0.2	FACES	1	0.813631985472966	1	0	0	2120
459.76513671875	0.2	FACES	1	0.681415448383632	1	0	0	2128
461.18505859375	0.2	FACES	1	0.504068454228218	1	0	0	2136
462.5048828125	0.2	SCRAMBLED	0	0.490040384203894	1	0	0	2144
463.83447265625	0.2	FACES	1	0.454911348840142	1	0	0	2152
465.12451171875	0.2	FACES	1	0.498720014827086	1	0	0	2160
466.37451171875	0.2	SCRAMBLED	0	0.75740379585568	1	0	0	2168
467.7841796875	0.2	SCRAMBLED	0	0.567397610996522	1	0	0	2176
469.10400390625	0.2	SCRAMBLED	0	0.392219694415871	1	0	0	2184
470.4541015625	0.2	SCRAMBLED	0	0.4389949196011	1	0	0	2192
471.673828125	0.2	SCRAMBLED	0	0.504963130812939	1	0	0	2200
472.97412109375	0.2	SCRAMBLED	0	0.513758972800133	1	0	0	2208
474.14404296875	0.2	FACES	1	0.721609790007278	1	0	0	2216
475.77392578125	0.2	SCRAMBLED	0	0.699283021156589	1	0	0	2222
509.27099609375	0.2	SCRAMBLED	0	0.866947042934044	1	0	0	2226
510.9912109375	0.2	SCRAMBLED	0	0.688817659539382	1	0	0	2231
512.470703125	0.2	SCRAMBLED	0	0.373632516724683	1	0	0	2239
513.62060546875	0.2	FACES	1	0.488529938311331	1	0	0	2247
515.0205078125	0.2	FACES	1	0.423344720034038	1	0	0	2255
516.11083984375	0.2	SCRAMBLED	0	0.717065774727416	1	0	0	2263
517.73046875	0.2	FACES	1	0.563932097548786	1	0	0	2269
519.240234375	0.2	SCRAMBLED	0	0.528752049923241	1	0	0	2275
NaN	0.2	SCRAMBLED	0	0.623508985553599	1	1	0	NaN
522.25	0.2	SCRAMBLED	0	0.488294195257367	1	0	0	2282
523.68017578125	0.2	SCRAMBLED	0	0.402994449926155	1	0	0	2290
524.72998046875	0.2	FACES	1	0.54336570448686	1	0	0	2298
526.02978515625	0.2	FACES	1	0.400940678173356	1	0	0	2306
527.36962890625	0.2	FACES	1	0.448829419526191	1	0	0	2314
528.5498046875	0.2	SCRAMBLED	0	0.642855008362858	1	0	0	2322
529.98974609375	0.2	FACES	1	0.497289860422825	1	0	0	2330
531.33935546875	0.2	FACES	1	0.382934557305816	1	0	0	2338
532.51953125	0.2	FACES	1	0.402886690297237	1	0	0	2346
533.76904296875	0.2	SCRAMBLED	0	0.583950637034832	1	0	0	2354
535.1591796875	0.2	SCRAMBLED	0	NaN	0	0	1	2362
537.23876953125	0.2	SCRAMBLED	0	0.544465637507528	1	0	0	2364
538.5888671875	0.2	SCRAMBLED	0	0.639233741501812	1	0	0	2372
540.12890625	0.2	FACES	1	0.633113779377709	1	0	0	2378
541.57861328125	0.2	FACES	1	0.523928523672112	1	0	0	2386
542.77880859375	0.2	SCRAMBLED	0	0.592730782941544	1	0	0	2394
544.12841796875	0.2	FACES	1	0.651519546600866	1	0	0	2402
545.6484375	0.2	FACES	1	0.46345605354054	1	0	0	2408
546.84814453125	0.2	SCRAMBLED	0	0.542032745042889	1	0	0	2416
548.34814453125	0.2	SCRAMBLED	0	0.439970189520864	1	0	0	2423
549.5478515625	0.2	SCRAMBLED	0	0.417940740656377	1	0	0	2431
550.8681640625	0.2	FACES	1	0.623697942213767	1	0	0	2439
552.35791015625	0.2	SCRAMBLED	0	0.789496847050032	1	0	0	2447
554.017578125	0.2	FACES	1	0.408171137986756	1	0	0	2453
555.11767578125	0.2	SCRAMBLED	0	0.761913098650439	1	0	0	2461
556.7373046875	0.2	FACES	1	0.544749072497325	1	0	0	2467
558.13720703125	0.2	FACES	1	0.492871715632646	1	0	0	2475
559.52734375	0.2	FACES	1	0.428515371140747	1	0	0	2483
560.607421875	0.2	FACES	1	0.472516314112909	1	0	0	2491
561.79736328125	0.2	SCRAMBLED	0	0.798211492005976	1	0	0	2499
563.296875	0.2	SCRAMBLED	0	0.887091452910681	1	0	0	2506
565.14697265625	0.2	SCRAMBLED	0	0.608888086644583	1	0	0	2511
566.57666015625	0.2	FACES	1	0.65868390176729	1	0	0	2519
568.19677734375	0.2	FACES	1	0.803501674801737	1	0	0	2525
569.6962890625	0.2	SCRAMBLED	0	0.532251370313134	1	0	0	2532
571.08642578125	0.2	SCRAMBLED	0	0.488178285741014	1	0	0	2540
572.51611328125	0.2	SCRAMBLED	0	0.382894109714471	1	0	0	2548
573.80615234375	0.2	SCRAMBLED	0	0.498742955252055	1	0	0	2556
574.986328125	0.2	SCRAMBLED	0	0.432635290403596	1	0	0	2564
576.38623046875	0.2	FACES	1	0.553042639911837	1	0	0	2572
577.77587890625	0.2	FACES	1	0.387356022420136	1	0	0	2580
579.0556640625	0.2	FACES	1	0.43313032063179	1	0	0	2588
580.255859375	0.2	SCRAMBLED	0	0.667861882944635	1	0	0	2596
581.8056640625	0.2	FACES	1	0.607703032574136	1	0	0	2602
583.1552734375	0.2	SCRAMBLED	0	NaN	0	0	1	2610
584.42529296875	0.2	SCRAMBLED	0	0.404043370685031	1	0	0	2618
585.62548828125	0.2	SCRAMBLED	0	0.307857488041918	1	0	0	2626
586.59521484375	0.2	FACES	1	0.633084801998848	1	0	0	2636
588.01513671875	0.2	SCRAMBLED	0	0.413784297822531	1	0	0	2644
589.294921875	0.2	FACES	1	0.432818210108962	1	0	0	2652
590.48486328125	0.2	SCRAMBLED	0	0.477292450275854	1	0	0	2660
591.6650390625	0.2	FACES	1	0.632512498758842	1	0	0	2668
593.06494140625	0.2	SCRAMBLED	0	0.468221625033038	1	0	0	2676
594.384765625	0.2	FACES	1	0.652067702024397	1	0	0	2684
595.95458984375	0.2	FACES	1	0.423934530441329	1	0	0	2690
597.13427734375	0.2	FACES	1	0.472473451739461	1	0	0	2698
598.37451171875	0.2	SCRAMBLED	0	0.637316706756792	1	0	0	2706
599.84423828125	0.2	FACES	1	0.758476864430122	1	0	0	2714
601.50390625	0.2	FACES	1	0.463204312558446	1	0	0	2720
602.7041015625	0.2	SCRAMBLED	0	0.581989532525768	1	0	0	2728
604.07373046875	0.2	SCRAMBLED	0	NaN	0	0	1	2736
605.513671875	0.2	FACES	1	0.548670677820155	1	0	0	2744
606.87353515625	0.2	SCRAMBLED	0	0.749441959064825	1	0	0	2752
608.33349609375	0.2	SCRAMBLED	0	0.527366267130674	1	0	0	2760
609.6435546875	0.2	SCRAMBLED	0	0.633154830665262	1	0	0	2768
611.0634765625	0.2	SCRAMBLED	0	0.453998561393746	1	0	0	2776
612.35302734375	0.2	FACES	1	0.648728059068162	1	0	0	2784
613.86328125	0.2	SCRAMBLED	0	0.849501151397817	1	0	0	2790
615.40283203125	0.2	SCRAMBLED	0	0.552462790479694	1	0	0	2796
616.68310546875	0.2	FACES	1	0.687231449874162	1	0	0	2804
618.1728515625	0.2	FACES	1	0.483963284453239	1	0	0	2812
619.32275390625	0.2	FACES	1	0.721887489891742	1	0	0	2820
620.7724609375	0.2	SCRAMBLED	0	0.912722246688645	1	0	0	2828
622.54248046875	0.2	FACES	1	0.713435452435078	1	0	0	2833
624.072265625	0.2	FACES	1	0.523227935159412	1	0	0	2839
625.39208984375	0.2	FACES	1	NaN	0	0	1	2847
NaN	0.2	SCRAMBLED	0	1.00873879277242	1	1	0	NaN
628.93212890625	0.2	SCRAMBLED	0	NaN	0	0	1	2852
630.91162109375	0.2	SCRAMBLED	0	0.423431048477141	1	0	0	2854
632.20166015625	0.2	FACES	1	0.6412162771976	1	0	0	2862
633.5517578125	0.2	SCRAMBLED	0	0.648027772403111	1	0	0	2870
634.931640625	0.2	SCRAMBLED	0	NaN	0	0	1	2878
636.75146484375	0.2	SCRAMBLED	0	0.606641434211269	1	0	0	2880
638.18115234375	0.2	FACES	1	0.568219542284169	1	0	0	2888
639.60107421875	0.2	FACES	1	0.473278781404588	1	0	0	2896
640.90087890625	0.2	FACES	1	0.418161995020455	1	0	0	2904
642.0908203125	0.2	FACES	1	0.380577126766184	1	0	0	2912
643.2607421875	0.2	SCRAMBLED	0	0.503793470974415	1	0	0	2920
644.54052734375	0.2	SCRAMBLED	0	0.653715186772388	1	0	0	2928
645.98046875	0.2	FACES	1	0.647454865468717	1	0	0	2936
647.54052734375	0.2	FACES	1	0.481101164558822	1	0	0	2942
648.76025390625	0.2	SCRAMBLED	0	NaN	0	0	1	2950
650.76025390625	0.2	FACES	1	0.702811318926251	1	0	0	2952
652.150390625	0.2	FACES	1	0.636711200270838	1	0	0	2960
653.6298828125	0.2	FACES	1	0.653485178825576	1	0	0	2968
655.10009765625	0.2	SCRAMBLED	0	0.488376901527772	1	0	0	2976
656.3798828125	0.2	SCRAMBLED	0	0.513218061721091	1	0	0	2984
657.64990234375	0.2	FACES	1	0.681957265006531	1	0	0	2992
659.2197265625	0.2	SCRAMBLED	0	0.623699753300571	1	0	0	2998
660.74951171875	0.2	SCRAMBLED	0	NaN	0	0	1	3004
662.24951171875	0.2	SCRAMBLED	0	0.647231498170186	1	0	0	3011
663.7890625	0.2	FACES	1	0.638188141067985	1	0	0	3017
665.369140625	0.2	FACES	1	0.483961171518786	1	0	0	3023
666.72900390625	0.2	SCRAMBLED	0	0.619125251401783	1	0	0	3031
668.22900390625	0.2	FACES	1	0.767542558261994	1	0	0	3038
669.72900390625	0.2	FACES	1	0.604418325898223	1	0	0	3045
670.99853515625	0.2	SCRAMBLED	0	0.668848924924532	1	0	0	3053
672.6083984375	0.2	FACES	1	0.623010936848004	1	0	0	3059
674.1982421875	0.2	SCRAMBLED	0	0.668732713558711	1	0	0	3065
675.6982421875	0.2	SCRAMBLED	0	0.593680093958938	1	0	0	3072
677.12841796875	0.2	FACES	1	0.768476173198906	1	0	0	3080
678.837890625	0.2	SCRAMBLED	0	0.683123906367655	1	0	0	3085
680.18798828125	0.2	SCRAMBLED	0	0.957980989028329	1	0	0	3093
682.06787109375	0.2	SCRAMBLED	0	0.523889887165751	1	0	0	3098
683.337890625	0.2	SCRAMBLED	0	0.512618894035768	1	0	0	3106
684.65771484375	0.2	FACES	1	0.673463874414665	1	0	0	3114
686.03759765625	0.2	SCRAMBLED	0	0.667275694710042	1	0	0	3122
687.52734375	0.2	SCRAMBLED	0	0.85815753974839	1	0	0	3130
689.13720703125	0.2	FACES	1	0.530921429345653	1	0	0	3136
690.37744140625	0.2	SCRAMBLED	0	0.836744162039395	1	0	0	3144
691.97705078125	0.2	FACES	1	0.712552849759049	1	0	0	3150
693.39697265625	0.2	FACES	1	0.501411892618307	1	0	0	3158
694.8466796875	0.2	FACES	1	0.402222625356444	1	0	0	3166
696.216796875	0.2	SCRAMBLED	0	0.568975368925749	1	0	0	3174
697.61669921875	0.2	FACES	1	0.70878337567683	1	0	0	3182
699.28662109375	0.2	FACES	1	0.873516758130791	1	0	0	3188
700.88623046875	0.2	SCRAMBLED	0	0.593423825261198	1	0	0	3194
702.26611328125	0.2	SCRAMBLED	0	0.643545032205111	1	0	0	3202
703.8564453125	0.2	FACES	1	0.597979310755363	1	0	0	3208
705.236328125	0.2	SCRAMBLED	0	0.784740934683214	1	0	0	3216
706.92578125	0.2	FACES	1	0.513436599456327	1	0	0	3221
708.39599609375	0.2	SCRAMBLED	0	0.857190419716062	1	0	0	3229
710.15576171875	0.2	FACES	1	0.702144537356617	1	0	0	3234
711.69580078125	0.2	FACES	1	0.438965036679292	1	0	0	3240
712.845703125	0.2	SCRAMBLED	0	NaN	0	0	1	3248
714.67529296875	0.2	FACES	1	0.537326637546357	1	0	0	3250
715.9951171875	0.2	FACES	1	0.457450793542193	1	0	0	3258
717.4150390625	0.2	FACES	1	0.543246776493106	1	0	0	3266
718.8349609375	0.2	FACES	1	0.737016096632942	1	0	0	3274
720.3447265625	0.2	FACES	1	0.508540026061382	1	0	0	3280
721.56494140625	0.2	FACES	1	0.401905081575933	1	0	0	3288
NaN	0.2	FACES	1	0.461941985475278	1	1	0	NaN
NaN	0.2	SCRAMBLED	0	0.49323664950316	1	1	0	NaN
NaN	0.2	FACES	1	0.468051081082194	1	1	0	NaN
766.6015625	0.2	FACES	1	0.383944539711592	1	0	0	3296
767.64111328125	0.2	SCRAMBLED	0	0.517890060426907	1	0	0	3304
768.97119140625	0.2	FACES	1	0.583589627184665	1	0	0	3312
770.2412109375	0.2	SCRAMBLED	0	0.532482887500009	1	0	0	3320
771.62109375	0.2	FACES	1	0.413301039653561	1	0	0	3328
772.720703125	0.2	FACES	1	0.366165106465814	1	0	0	3336
773.82080078125	0.2	FACES	1	0.307030123494769	1	0	0	3344
774.79052734375	0.2	FACES	1	0.352807742031473	1	0	0	3354
775.91064453125	0.2	SCRAMBLED	0	0.417733974980365	1	0	0	3362
777.16064453125	0.2	SCRAMBLED	0	0.583760171135509	1	0	0	3370
NaN	0.2	FACES	1	0.590443079220677	1	1	0	NaN
NaN	0.2	SCRAMBLED	0	0.822199026903036	1	1	0	NaN
781.66015625	0.2	SCRAMBLED	0	0.59960234583923	1	0	0	3376
782.91015625	0.2	FACES	1	0.541782211451391	1	0	0	3384
784.41015625	0.2	SCRAMBLED	0	0.788600359380325	1	0	0	3391
786.1201171875	0.2	SCRAMBLED	0	0.41850429031274	1	0	0	3396
787.4697265625	0.2	FACES	1	0.448096231461932	1	0	0	3404
788.69970703125	0.2	SCRAMBLED	0	0.514098853311225	1	0	0	3412
789.8994140625	0.2	SCRAMBLED	0	0.412974440442667	1	0	0	3420
791.1396484375	0.2	SCRAMBLED	0	0.369874814703508	1	0	0	3428
792.439453125	0.2	SCRAMBLED	0	0.343605009344174	1	0	0	3436
793.66943359375	0.2	SCRAMBLED	0	0.473398614942198	1	0	0	3444
794.869140625	0.2	SCRAMBLED	0	0.381260509959247	1	0	0	3452
796.18896484375	0.2	FACES	1	0.478035599314353	1	0	0	3460
797.5087890625	0.2	SCRAMBLED	0	0.635720234269684	1	0	0	3468
798.80908203125	0.2	SCRAMBLED	0	0.67678087879267	1	0	0	3476
800.12890625	0.2	FACES	1	0.492600656398281	1	0	0	3484
801.3486328125	0.2	SCRAMBLED	0	0.797325870853456	1	0	0	3492
802.8984375	0.2	FACES	1	0.482234602673088	1	0	0	3498
804.30859375	0.2	FACES	1	0.508074275060608	1	0	0	3506
805.7783203125	0.2	FACES	1	0.421993951576042	1	0	0	3514
807.16845703125	0.2	SCRAMBLED	0	0.439622460969986	1	0	0	3522
808.29833984375	0.2	FACES	1	0.602555020044747	1	0	0	3530
809.71826171875	0.2	SCRAMBLED	0	0.558356064980217	1	0	0	3538
811.13818359375	0.2	SCRAMBLED	0	NaN	0	0	1	3546
812.41796875	0.2	SCRAMBLED	0	0.325185658974078	1	0	0	3554
813.53759765625	0.2	FACES	1	0.514958817409024	1	0	0	3562
814.81787109375	0.2	FACES	1	0.478775729875451	1	0	0	3570
816.03759765625	0.2	SCRAMBLED	0	0.462576771189561	1	0	0	3578
817.45751953125	0.2	FACES	1	0.70343463442714	1	0	0	3586
819.02734375	0.2	SCRAMBLED	0	0.469203535601991	1	0	0	3592
820.45703125	0.2	SCRAMBLED	0	0.348882514536854	1	0	0	3600
821.75732421875	0.2	SCRAMBLED	0	0.458946147049573	1	0	0	3608
823.14697265625	0.2	SCRAMBLED	0	0.528679908322374	1	0	0	3616
824.5966796875	0.2	SCRAMBLED	0	0.863487566440199	1	0	0	3624
826.376953125	0.2	SCRAMBLED	0	0.978269078510493	1	0	0	3629
828.03662109375	0.2	FACES	1	NaN	0	0	1	3635
829.8466796875	0.2	SCRAMBLED	0	NaN	0	0	1	3637
831.9365234375	0.2	FACES	1	0.497155840043888	1	0	0	3639
833.08642578125	0.2	SCRAMBLED	0	0.637441973552086	1	0	0	3647
834.4560546875	0.2	FACES	1	0.575847535519642	1	0	0	3655
835.7158203125	0.2	FACES	1	0.747024460832108	1	0	0	3663
837.35595703125	0.2	SCRAMBLED	0	0.453786966155349	1	0	0	3669
838.77587890625	0.2	SCRAMBLED	0	0.448607863313555	1	0	0	3677
839.8759765625	0.2	SCRAMBLED	0	0.476264658856962	1	0	0	3685
841.255859375	0.2	FACES	1	0.45329978396785	1	0	0	3693
842.67529296875	0.2	SCRAMBLED	0	0.608082153285068	1	0	0	3701
844.115234375	0.2	FACES	1	0.538977140771749	1	0	0	3709
845.4951171875	0.2	SCRAMBLED	0	0.812753004968727	1	0	0	3717
NaN	0.2	SCRAMBLED	0	NaN	0	1	1	NaN
849.2451171875	0.2	SCRAMBLED	0	0.433241702432497	1	0	0	3720
850.3349609375	0.2	FACES	1	0.661199500502335	1	0	0	3728
851.884765625	0.2	FACES	1	0.5689750670781	1	0	0	3734
853.40478515625	0.2	FACES	1	0.352755522379084	1	0	0	3740
854.53466796875	0.2	FACES	1	0.466451590118595	1	0	0	3748
855.88427734375	0.2	FACES	1	0.358454406960846	1	0	0	3756
857.08447265625	0.2	SCRAMBLED	0	0.494285872108776	1	0	0	3764
858.33447265625	0.2	FACES	1	0.441243986816517	1	0	0	3772
859.6240234375	0.2	FACES	1	0.443907792771824	1	0	0	3780
860.80419921875	0.2	FACES	1	0.576829747936245	1	0	0	3788
862.1240234375	0.2	SCRAMBLED	0	0.552345069875628	1	0	0	3796
863.59375	0.2	SCRAMBLED	0	0.468501739698695	1	0	0	3804
864.7939453125	0.2	FACES	1	0.646268000309647	1	0	0	3812
866.34375	0.2	FACES	1	0.663075182112152	1	0	0	3818
867.84375	0.2	SCRAMBLED	0	0.604066069631699	1	0	0	3825
869.33349609375	0.2	SCRAMBLED	0	0.433755145370924	1	0	0	3833
870.5634765625	0.2	FACES	1	0.862507165110401	1	0	0	3841
872.08349609375	0.2	FACES	1	0.98229240650835	1	0	0	3847
873.98291015625	0.2	FACES	1	0.492278283054475	1	0	0	3852
875.2529296875	0.2	FACES	1	0.487991140165832	1	0	0	3860
876.623046875	0.2	FACES	1	0.369028433751737	1	0	0	3868
877.65283203125	0.2	SCRAMBLED	0	0.577681260298959	1	0	0	3876
879.02294921875	0.2	FACES	1	0.478513122376171	1	0	0	3884
880.22265625	0.2	FACES	1	0.417415525657816	1	0	0	3892
881.6025390625	0.2	FACES	1	0.433056971640326	1	0	0	3900
882.80224609375	0.2	FACES	1	0.457746604288332	1	0	0	3908
884.0224609375	0.2	FACES	1	0.501627411876143	1	0	0	3916
885.26220703125	0.2	FACES	1	0.647728641331923	1	0	0	3924
886.67236328125	0.2	SCRAMBLED	0	0.547499508742476	1	0	0	3932
888.1318359375	0.2	SCRAMBLED	0	NaN	0	0	1	3940
890.0419921875	0.2	FACES	1	0.553030867851703	1	0	0	3942
891.49169921875	0.2	SCRAMBLED	0	NaN	0	0	1	3950
893.00146484375	0.2	FACES	1	0.676615466253679	1	0	0	3956
894.53173828125	0.2	FACES	1	0.402259148928351	1	0	0	3962
895.6513671875	0.2	SCRAMBLED	0	0.488550463955107	1	0	0	3970
897.021484375	0.2	FACES	1	0.616938968508293	1	0	0	3978
898.47119140625	0.2	SCRAMBLED	0	0.823973287685476	1	0	0	3986
900.201171875	0.2	SCRAMBLED	0	0.407792017275824	1	0	0	3991
901.47119140625	0.2	FACES	1	0.633573191577852	1	0	0	3999
902.95068359375	0.2	SCRAMBLED	0	0.669286000395005	1	0	0	4007
904.37060546875	0.2	SCRAMBLED	0	0.95202825053002	1	0	0	4015
906.16064453125	0.2	SCRAMBLED	0	0.43402228058585	1	0	0	4020
907.5107421875	0.2	SCRAMBLED	0	0.438900139423822	1	0	0	4028
908.740234375	0.2	FACES	1	0.474584876404151	1	0	0	4036
909.91015625	0.2	SCRAMBLED	0	0.592529148677386	1	0	0	4044
911.46044921875	0.2	SCRAMBLED	0	0.718280409872932	1	0	0	4050
913.0302734375	0.2	FACES	1	0.503041568352273	1	0	0	4056
914.2998046875	0.2	FACES	1	NaN	0	0	1	4064
916.10009765625	0.2	SCRAMBLED	0	0.484617388419792	1	0	0	4066
917.2998046875	0.2	FACES	1	0.602308108625948	1	0	0	4074
918.6796875	0.2	SCRAMBLED	0	0.553289853178285	1	0	0	4082
920.1494140625	0.2	SCRAMBLED	0	0.60812350642027	1	0	0	4090
921.41943359375	0.2	SCRAMBLED	0	0.507952932284752	1	0	0	4098
922.689453125	0.2	SCRAMBLED	0	0.647792029350057	1	0	0	4106
924.20947265625	0.2	SCRAMBLED	0	0.488570385902676	1	0	0	4112
925.46923828125	0.2	SCRAMBLED	0	0.70354480883816	1	0	0	4120
926.8388671875	0.2	FACES	1	0.731290649451694	1	0	0	4128
928.35888671875	0.2	FACES	1	0.507068518522829	1	0	0	4134
929.57861328125	0.2	SCRAMBLED	0	0.668021862225032	1	0	0	4142
931.07861328125	0.2	SCRAMBLED	0	0.444771680889971	1	0	0	4149
932.478515625	0.2	FACES	1	0.49355117480718	1	0	0	4157
933.87841796875	0.2	FACES	1	0.623358363551233	1	0	0	4165
935.17822265625	0.2	SCRAMBLED	0	0.552233386227272	1	0	0	4173
936.66845703125	0.2	SCRAMBLED	0	0.764995265518337	1	0	0	4181
938.318359375	0.2	FACES	1	0.638827152650265	1	0	0	4187
939.91796875	0.2	SCRAMBLED	0	0.558578224887242	1	0	0	4193
941.2880859375	0.2	SCRAMBLED	0	0.929100804755763	1	0	0	4201
943.0078125	0.2	SCRAMBLED	0	0.424277429428912	1	0	0	4206
944.337890625	0.2	FACES	1	0.473076543445131	1	0	0	4214
945.53759765625	0.2	FACES	1	0.405961310972998	1	0	0	4222
946.8876953125	0.2	SCRAMBLED	0	0.523764620370457	1	0	0	4230
948.1572265625	0.2	FACES	1	0.571538659596627	1	0	0	4238
949.5771484375	0.2	SCRAMBLED	0	NaN	0	0	1	4246
950.92724609375	0.2	SCRAMBLED	0	0.669229856721358	1	0	0	4254
952.4072265625	0.2	FACES	1	0.602980927149474	1	0	0	4262
953.7568359375	0.2	FACES	1	0.471662990664299	1	0	0	4270
955.1669921875	0.2	FACES	1	0.459066282434833	1	0	0	4278
956.57666015625	0.2	FACES	1	0.492520364909979	1	0	0	4286
957.81689453125	0.2	FACES	1	0.417188536186586	1	0	0	4294
958.98681640625	0.2	FACES	1	0.40226609142519	1	0	0	4302
960.16650390625	0.2	FACES	1	0.37796071089906	1	0	0	4310
961.4462890625	0.2	FACES	1	0.433946214965545	1	0	0	4318
962.81640625	0.2	SCRAMBLED	0	0.493955952572833	1	0	0	4326
964.15625	0.2	FACES	1	0.627344866129533	1	0	0	4334
965.5361328125	0.2	FACES	1	0.481162137794854	1	0	0	4342
966.755859375	0.2	SCRAMBLED	0	0.602279131246178	1	0	0	4350
968.0859375	0.2	FACES	1	0.40706335692721	1	0	0	4358
