onset	duration	trial_type	trial_type_id	response_time	bad_epoch	outliers	direction	name_direction	event_num	response_accuracy
38.22998046875	0.2	RANDOM	0	0.879029227434785	0	0	0	NONE	1.0	1
39.8798828125	0.2	RANDOM	0	0.884872058097244	0	0	0	NONE	4.0	1
41.56982421875	0.2	COHERENT	1	0.509568665258939	0	0	0	RIGHT	7.0	1
42.89990234375	0.2	COHERENT	1	0.544207290845861	0	0	180	LEFT	11.0	1
44.26953125	0.2	RANDOM	0	0.64437061965009	0	0	0	NONE	15.0	1
45.78955078125	0.2	RANDOM	0	0.694116329590088	0	0	0	NONE	18.0	1
47.33935546875	0.2	RANDOM	0	0.889885114440403	0	0	0	NONE	21.0	1
48.859375	0.2	RANDOM	0	n/a	0	1	0	NONE	24.0	0
50.55908203125	0.2	RANDOM	0	n/a	0	1	0	NONE	26.0	0
n/a	0.2	COHERENT	1	0.574315813494195	1	0	0	RIGHT	n/a	1
53.7587890625	0.2	RANDOM	0	0.903621214814848	0	0	0	NONE	29.0	1
55.30908203125	0.2	COHERENT	1	n/a	0	1	0	RIGHT	32.0	0
56.64892578125	0.2	COHERENT	1	n/a	0	1	0	RIGHT	36.0	0
58.37841796875	0.2	RANDOM	0	0.784622703216883	0	0	0	NONE	39.0	1
59.7587890625	0.2	RANDOM	0	0.968339687692151	0	0	0	NONE	43.0	1
61.32861328125	0.2	RANDOM	0	n/a	0	1	0	NONE	46.0	0
63.1982421875	0.2	RANDOM	0	n/a	0	1	0	NONE	48.0	0
64.84814453125	0.2	RANDOM	0	n/a	0	1	0	NONE	51.0	0
66.748046875	0.2	COHERENT	1	0.75942219454646	0	0	0	RIGHT	53.0	1
68.18798828125	0.2	COHERENT	1	0.633850083414927	0	0	180	LEFT	57.0	1
69.48779296875	0.2	COHERENT	1	1.01210401971184	0	0	0	RIGHT	61.0	1
71.15771484375	0.2	COHERENT	1	0.738560720373698	0	0	180	LEFT	63.0	1
72.7275390625	0.2	COHERENT	1	n/a	0	1	0	RIGHT	66.0	0
74.4873046875	0.2	COHERENT	1	0.728446166844151	0	0	180	LEFT	69.0	1
75.99755859375	0.2	RANDOM	0	0.714074680895919	0	0	0	NONE	72.0	1
77.4072265625	0.2	RANDOM	0	n/a	0	1	0	NONE	76.0	0
78.85693359375	0.2	RANDOM	0	1.02285154404763	0	0	0	NONE	80.0	1
n/a	0.2	COHERENT	1	0.709703047043604	1	0	180	LEFT	n/a	1
n/a	0.2	COHERENT	1	0.673265118176914	1	0	0	RIGHT	n/a	1
83.466796875	0.2	COHERENT	1	0.634319151909494	0	0	180	LEFT	83.0	1
84.73681640625	0.2	RANDOM	0	n/a	0	1	0	NONE	87.0	0
86.33642578125	0.2	COHERENT	1	n/a	0	1	180	LEFT	90.0	0
88.06640625	0.2	COHERENT	1	0.614814474958621	0	0	180	LEFT	93.0	1
89.58642578125	0.2	RANDOM	0	0.92940790818102	0	0	0	NONE	96.0	1
91.42626953125	0.2	COHERENT	1	1.01978569546327	0	0	180	LEFT	99.0	1
93.2861328125	0.2	RANDOM	0	0.877674241287423	0	0	0	NONE	101.0	1
94.8359375	0.2	COHERENT	1	0.903676452610853	0	0	180	LEFT	104.0	1
96.6259765625	0.2	RANDOM	0	0.804591619128132	0	0	0	NONE	107.0	1
98.0458984375	0.2	RANDOM	0	0.833339118712502	0	0	0	NONE	111.0	1
99.4755859375	0.2	COHERENT	1	n/a	0	1	0	RIGHT	115.0	0
101.3154296875	0.2	RANDOM	0	1.14467744598551	0	0	0	NONE	117.0	1
103.2451171875	0.2	COHERENT	1	1.05965712119314	0	0	0	RIGHT	119.0	1
105.21533203125	0.2	COHERENT	1	0.759479847108651	0	0	180	LEFT	121.0	1
106.634765625	0.2	COHERENT	1	n/a	0	1	180	LEFT	125.0	0
108.46484375	0.2	RANDOM	0	n/a	0	1	0	NONE	127.0	0
110.4345703125	0.2	COHERENT	1	n/a	0	1	0	RIGHT	128.0	0
112.484375	0.2	RANDOM	0	n/a	0	1	0	NONE	129.0	0
114.45458984375	0.2	RANDOM	0	0.874979663133672	0	0	0	NONE	130.0	1
115.994140625	0.2	RANDOM	0	1.02813022476357	0	0	0	NONE	133.0	1
117.89404296875	0.2	COHERENT	1	0.954866193231283	0	0	180	LEFT	135.0	1
119.69384765625	0.2	RANDOM	0	1.02958572558737	0	0	0	NONE	138.0	1
121.52392578125	0.2	RANDOM	0	1.01930515682534	0	0	0	NONE	140.0	1
123.263671875	0.2	COHERENT	1	n/a	0	1	0	RIGHT	142.0	0
125.09375	0.2	RANDOM	0	n/a	0	1	0	NONE	144.0	0
127.20361328125	0.2	COHERENT	1	n/a	0	1	0	RIGHT	145.0	0
129.103515625	0.2	RANDOM	0	1.10816556487907	0	0	0	NONE	146.0	1
131.05322265625	0.2	COHERENT	1	0.760310225119611	0	0	0	RIGHT	148.0	1
132.5830078125	0.2	RANDOM	0	0.964686447029635	0	0	0	NONE	151.0	1
134.373046875	0.2	RANDOM	0	1.06487996042233	0	0	0	NONE	154.0	1
136.1728515625	0.2	RANDOM	0	n/a	0	1	0	NONE	156.0	0
138.1025390625	0.2	RANDOM	0	1.0289189480427	0	0	0	NONE	157.0	1
139.9423828125	0.2	RANDOM	0	1.17003461266677	0	0	0	NONE	159.0	1
141.71240234375	0.2	COHERENT	1	1.14745533360156	0	0	0	RIGHT	161.0	1
143.4921875	0.2	RANDOM	0	0.933608093574549	0	0	0	NONE	163.0	1
145.14208984375	0.2	COHERENT	1	n/a	0	1	180	LEFT	166.0	0
147.03173828125	0.2	RANDOM	0	n/a	0	1	0	NONE	168.0	0
149.11181640625	0.2	COHERENT	1	0.999804705716997	0	0	0	RIGHT	169.0	1
151.00146484375	0.2	COHERENT	1	0.794577580276837	0	0	0	RIGHT	171.0	1
152.62158203125	0.2	COHERENT	1	1.19434950553114	0	0	0	RIGHT	174.0	1
154.47119140625	0.2	COHERENT	1	0.85817379017908	0	0	0	RIGHT	176.0	1
n/a	0.2	COHERENT	1	1.14490624516111	1	0	180	LEFT	n/a	1
157.9208984375	0.2	COHERENT	1	n/a	0	1	0	RIGHT	179.0	0
159.64111328125	0.2	COHERENT	1	n/a	0	1	180	LEFT	181.0	0
161.5107421875	0.2	COHERENT	1	n/a	0	1	0	RIGHT	182.0	0
163.53076171875	0.2	RANDOM	0	1.00465204867351	0	0	0	NONE	183.0	1
165.310546875	0.2	COHERENT	1	n/a	0	1	0	RIGHT	185.0	0
167.1103515625	0.2	COHERENT	1	n/a	0	1	180	LEFT	186.0	0
169.080078125	0.2	COHERENT	1	n/a	0	1	0	RIGHT	187.0	0
170.93017578125	0.2	COHERENT	1	n/a	0	1	0	RIGHT	188.0	0
172.9501953125	0.2	COHERENT	1	1.03468571354415	0	0	0	RIGHT	190.0	1
174.68994140625	0.2	RANDOM	0	n/a	0	1	0	NONE	192.0	0
176.58984375	0.2	COHERENT	1	0.938338924021991	0	0	0	RIGHT	193.0	1
178.3095703125	0.2	RANDOM	0	0.954084714252986	0	0	0	NONE	196.0	1
180.08935546875	0.2	RANDOM	0	1.13391603673927	0	0	0	NONE	199.0	1
181.939453125	0.2	RANDOM	0	1.01463680847473	0	0	0	NONE	201.0	1
183.80908203125	0.2	COHERENT	1	n/a	0	1	0	RIGHT	203.0	0
185.9091796875	0.2	COHERENT	1	n/a	0	1	180	LEFT	204.0	0
187.8291015625	0.2	RANDOM	0	n/a	0	1	0	NONE	206.0	0
189.77880859375	0.2	COHERENT	1	0.759596963309377	0	0	180	LEFT	207.0	1
191.4287109375	0.2	COHERENT	1	1.16897422809734	0	0	180	LEFT	210.0	1
193.2783203125	0.2	RANDOM	0	0.972735167369137	0	0	0	NONE	212.0	1
194.98828125	0.2	COHERENT	1	n/a	0	1	180	LEFT	215.0	0
196.83837890625	0.2	RANDOM	0	n/a	0	1	0	NONE	216.0	0
198.71826171875	0.2	COHERENT	1	0.838565278246278	0	0	0	RIGHT	217.0	1
200.4677734375	0.2	COHERENT	1	0.839061512869648	0	0	180	LEFT	220.0	1
201.90771484375	0.2	RANDOM	0	0.948119636010233	0	0	0	NONE	224.0	1
203.5576171875	0.2	COHERENT	1	n/a	0	1	180	LEFT	227.0	0
205.427734375	0.2	COHERENT	1	n/a	0	1	180	LEFT	228.0	0
207.2275390625	0.2	COHERENT	1	n/a	0	1	0	RIGHT	229.0	0
209.22705078125	0.2	COHERENT	1	1.15972416116301	0	0	0	RIGHT	230.0	1
211.1669921875	0.2	COHERENT	1	n/a	0	1	180	LEFT	232.0	0
213.046875	0.2	RANDOM	0	0.998508277670226	0	0	0	NONE	233.0	1
214.68701171875	0.2	RANDOM	0	n/a	0	1	0	NONE	235.0	0
216.74658203125	0.2	COHERENT	1	0.744997885569774	0	0	0	RIGHT	236.0	1
218.15673828125	0.2	COHERENT	1	0.769686161785557	0	0	180	LEFT	240.0	1
219.63623046875	0.2	RANDOM	0	n/a	0	1	0	NONE	244.0	0
221.5361328125	0.2	COHERENT	1	n/a	0	1	180	LEFT	245.0	0
223.4560546875	0.2	RANDOM	0	n/a	0	1	0	NONE	246.0	0
225.505859375	0.2	COHERENT	1	n/a	0	1	0	RIGHT	247.0	0
227.32568359375	0.2	RANDOM	0	n/a	0	1	0	NONE	248.0	0
229.42578125	0.2	COHERENT	1	n/a	0	1	180	LEFT	249.0	0
231.2158203125	0.2	RANDOM	0	n/a	0	1	0	NONE	251.0	0
233.115234375	0.2	RANDOM	0	1.15770903808061	0	0	0	NONE	252.0	1
235.0654296875	0.2	RANDOM	0	0.970926506867272	0	0	0	NONE	254.0	1
236.71533203125	0.2	COHERENT	1	n/a	0	1	180	LEFT	257.0	0
238.6650390625	0.2	COHERENT	1	0.889309494350528	0	0	180	LEFT	258.0	1
240.23486328125	0.2	RANDOM	0	0.963165747495623	0	0	0	NONE	261.0	1
241.82470703125	0.2	COHERENT	1	1.07292415307347	0	0	180	LEFT	264.0	1
243.53466796875	0.2	RANDOM	0	n/a	0	1	0	NONE	266.0	0
245.50439453125	0.2	COHERENT	1	n/a	0	1	0	RIGHT	268.0	0
n/a	0.2	RANDOM	0	n/a	1	1	0	NONE	n/a	1
248.30419921875	0.2	RANDOM	0	0.700169848675614	0	0	0	NONE	271.0	1
249.6640625	0.2	COHERENT	1	n/a	0	1	180	LEFT	275.0	0
251.56396484375	0.2	COHERENT	1	0.948668693662512	0	0	180	LEFT	276.0	1
n/a	0.2	COHERENT	1	n/a	1	1	180	LEFT	n/a	0
255.11376953125	0.2	RANDOM	0	0.779160802052957	0	0	0	NONE	278.0	1
256.7138671875	0.2	RANDOM	0	n/a	0	1	0	NONE	281.0	0
258.61328125	0.2	RANDOM	0	n/a	0	1	0	NONE	282.0	0
260.5634765625	0.2	RANDOM	0	n/a	0	1	0	NONE	283.0	0
262.47314453125	0.2	COHERENT	1	1.06791592626359	0	0	0	RIGHT	284.0	1
264.283203125	0.2	RANDOM	0	0.919706883504659	0	0	0	NONE	286.0	1
266.052734375	0.2	RANDOM	0	n/a	0	1	0	NONE	289.0	0
267.95263671875	0.2	RANDOM	0	1.06832915327095	0	0	0	NONE	290.0	1
269.62255859375	0.2	COHERENT	1	n/a	0	1	0	RIGHT	292.0	0
271.47265625	0.2	COHERENT	1	0.894075338920175	0	0	180	LEFT	294.0	1
273.08251953125	0.2	RANDOM	0	1.08887187819664	0	0	0	NONE	297.0	1
274.96240234375	0.2	COHERENT	1	1.02961289171662	0	0	0	RIGHT	299.0	1
276.6123046875	0.2	COHERENT	1	0.913412491408508	0	0	0	RIGHT	301.0	1
278.2822265625	0.2	RANDOM	0	0.779163820511258	0	0	0	NONE	304.0	1
279.9619140625	0.2	COHERENT	1	n/a	0	1	180	LEFT	307.0	0
281.82177734375	0.2	RANDOM	0	0.778863785708836	0	0	0	NONE	308.0	1
283.431640625	0.2	RANDOM	0	1.17829583250432	0	0	0	NONE	311.0	1
285.25146484375	0.2	RANDOM	0	n/a	0	1	0	NONE	313.0	0
287.22119140625	0.2	RANDOM	0	1.18476197490509	0	0	0	NONE	314.0	1
289.0712890625	0.2	RANDOM	0	n/a	0	1	0	NONE	316.0	0
291.12109375	0.2	COHERENT	1	1.1097055825494	0	0	180	LEFT	317.0	1
292.9111328125	0.2	COHERENT	1	n/a	0	1	180	LEFT	319.0	0
294.69091796875	0.2	RANDOM	0	n/a	0	1	0	NONE	321.0	0
296.50048828125	0.2	RANDOM	0	n/a	0	1	0	NONE	322.0	0
298.400390625	0.2	RANDOM	0	n/a	0	1	0	NONE	323.0	0
n/a	0.2	RANDOM	0	0.809956024073927	1	0	0	NONE	n/a	1
318.7490234375	0.2	COHERENT	1	0.974636494554943	0	0	180	LEFT	325.0	1
320.37890625	0.2	RANDOM	0	0.828838596670266	0	0	0	NONE	328.0	1
321.81884765625	0.2	COHERENT	1	n/a	0	1	0	RIGHT	332.0	0
323.7685546875	0.2	RANDOM	0	n/a	0	1	0	NONE	334.0	0
325.6884765625	0.2	COHERENT	1	0.694299851884352	0	0	180	LEFT	335.0	1
327.0185546875	0.2	COHERENT	1	1.0631051066589	0	0	180	LEFT	339.0	1
328.8583984375	0.2	RANDOM	0	0.824826159412623	0	0	0	NONE	341.0	1
330.30810546875	0.2	COHERENT	1	0.812652413303113	0	0	0	RIGHT	345.0	1
331.927734375	0.2	RANDOM	0	1.05934712547651	0	0	0	NONE	348.0	1
333.7080078125	0.2	COHERENT	1	0.894120615801967	0	0	0	RIGHT	350.0	1
335.32763671875	0.2	COHERENT	1	n/a	0	1	180	LEFT	353.0	0
337.40771484375	0.2	COHERENT	1	n/a	0	1	180	LEFT	354.0	0
339.0576171875	0.2	COHERENT	1	0.708139787240725	0	0	0	RIGHT	356.0	1
340.37744140625	0.2	RANDOM	0	1.06834334002724	0	0	0	NONE	360.0	1
342.09716796875	0.2	COHERENT	1	1.02766809872401	0	0	0	RIGHT	362.0	1
343.7470703125	0.2	RANDOM	0	n/a	0	1	0	NONE	364.0	0
345.76708984375	0.2	RANDOM	0	n/a	0	1	0	NONE	365.0	0
347.7666015625	0.2	RANDOM	0	1.1996318083975	0	0	0	NONE	366.0	1
349.66650390625	0.2	RANDOM	0	n/a	0	1	0	NONE	368.0	0
351.7763671875	0.2	COHERENT	1	n/a	0	1	180	LEFT	369.0	0
353.7763671875	0.2	COHERENT	1	n/a	0	1	180	LEFT	370.0	0
355.25634765625	0.2	RANDOM	0	0.928351145761553	0	0	0	NONE	374.0	1
357.05615234375	0.2	COHERENT	1	n/a	0	1	180	LEFT	377.0	0
359.0556640625	0.2	RANDOM	0	0.810011261869477	0	0	0	NONE	378.0	1
360.69580078125	0.2	COHERENT	1	0.804787818949535	0	0	0	RIGHT	381.0	1
362.19580078125	0.2	RANDOM	0	0.948270860795219	0	0	0	NONE	385.0	1
363.765625	0.2	COHERENT	1	n/a	0	1	0	RIGHT	388.0	0
365.5654296875	0.2	RANDOM	0	n/a	0	1	0	NONE	389.0	0
367.53515625	0.2	COHERENT	1	0.694578455629653	0	0	0	RIGHT	390.0	1
368.9853515625	0.2	COHERENT	1	1.11939634446526	0	0	0	RIGHT	394.0	1
370.73486328125	0.2	RANDOM	0	0.903063705477962	0	0	0	NONE	396.0	1
372.5048828125	0.2	COHERENT	1	1.17386081101722	0	0	0	RIGHT	399.0	1
374.40478515625	0.2	COHERENT	1	0.974499154680871	0	0	0	RIGHT	401.0	1
376.15478515625	0.2	RANDOM	0	0.854794323727674	0	0	0	NONE	404.0	1
377.79443359375	0.2	RANDOM	0	n/a	0	1	0	NONE	407.0	0
379.71435546875	0.2	COHERENT	1	0.774294140960137	0	0	180	LEFT	408.0	1
381.1240234375	0.2	RANDOM	0	0.748052867701972	0	0	0	NONE	412.0	1
382.72412109375	0.2	COHERENT	1	0.769005197484148	0	0	180	LEFT	415.0	1
384.19384765625	0.2	COHERENT	1	0.928748374937186	0	0	0	RIGHT	419.0	1
385.8837890625	0.2	RANDOM	0	1.01952942831304	0	0	0	NONE	422.0	1
387.75390625	0.2	RANDOM	0	0.850269955861222	0	0	0	NONE	424.0	1
389.43359375	0.2	RANDOM	0	1.10408611783669	0	0	0	NONE	427.0	1
391.43359375	0.2	COHERENT	1	0.749781840891501	0	0	180	LEFT	429.0	1
392.93310546875	0.2	COHERENT	1	0.719361813296928	0	0	180	LEFT	433.0	1
394.30322265625	0.2	COHERENT	1	0.948494226744515	0	0	180	LEFT	437.0	1
396.10302734375	0.2	RANDOM	0	0.759100728686008	0	0	0	NONE	440.0	1
397.7431640625	0.2	RANDOM	0	0.805019334737608	0	0	0	NONE	443.0	1
399.29296875	0.2	RANDOM	0	0.699775034267077	0	0	0	NONE	446.0	1
400.712890625	0.2	COHERENT	1	0.664625685454212	0	0	180	LEFT	450.0	1
402.0625	0.2	RANDOM	0	0.653524397749607	0	0	0	NONE	454.0	1
403.5625	0.2	COHERENT	1	0.839128824500222	0	0	180	LEFT	458.0	1
405.13232421875	0.2	COHERENT	1	0.674530456098182	0	0	180	LEFT	461.0	1
406.54248046875	0.2	RANDOM	0	0.679809740506244	0	0	0	NONE	465.0	1
408.001953125	0.2	COHERENT	1	0.644566215779378	0	0	180	LEFT	469.0	1
409.40185546875	0.2	COHERENT	1	0.599529603383871	0	0	180	LEFT	473.0	1
410.7021484375	0.2	COHERENT	1	0.638353322070543	0	0	180	LEFT	477.0	1
411.9716796875	0.2	RANDOM	0	0.753101240012711	0	0	0	NONE	481.0	1
413.5517578125	0.2	RANDOM	0	0.524034930812377	0	0	0	NONE	484.0	1
414.82177734375	0.2	COHERENT	1	0.830911070469028	0	0	180	LEFT	488.0	1
416.4716796875	0.2	RANDOM	0	1.00452768817149	0	0	0	NONE	491.0	1
418.09130859375	0.2	RANDOM	0	n/a	0	1	0	NONE	493.0	0
420.17138671875	0.2	COHERENT	1	0.639036701138593	0	0	0	RIGHT	494.0	1
421.64111328125	0.2	COHERENT	1	0.744890428436975	0	0	0	RIGHT	498.0	1
423.26123046875	0.2	COHERENT	1	0.67511362233472	0	0	180	LEFT	501.0	1
n/a	0.2	COHERENT	1	0.882529432236879	1	0	180	LEFT	n/a	1
426.041015625	0.2	COHERENT	1	0.788329068754138	0	0	180	LEFT	505.0	1
427.7109375	0.2	RANDOM	0	0.604076005999104	0	0	0	NONE	508.0	1
429.00048828125	0.2	RANDOM	0	0.65289203063503	0	0	0	NONE	512.0	1
430.45068359375	0.2	RANDOM	0	n/a	0	1	0	NONE	516.0	0
432.33056640625	0.2	COHERENT	1	0.634337564507859	0	0	0	RIGHT	518.0	1
433.80029296875	0.2	COHERENT	1	0.794162240348669	0	0	180	LEFT	522.0	1
435.47021484375	0.2	RANDOM	0	0.744056126430223	0	0	0	NONE	525.0	1
436.9501953125	0.2	RANDOM	0	0.819885546079604	0	0	0	NONE	529.0	1
438.509765625	0.2	COHERENT	1	0.644785657732427	0	0	180	LEFT	532.0	1
439.86962890625	0.2	COHERENT	1	0.754653331518512	0	0	180	LEFT	536.0	1
441.35986328125	0.2	COHERENT	1	0.734381664191005	0	0	180	LEFT	540.0	1
442.70947265625	0.2	RANDOM	0	0.743143646340741	0	0	0	NONE	544.0	1
444.15966796875	0.2	RANDOM	0	n/a	0	1	0	NONE	548.0	0
445.529296875	0.2	COHERENT	1	0.674567884987027	0	0	180	LEFT	552.0	1
447.029296875	0.2	RANDOM	0	n/a	0	1	0	NONE	556.0	0
448.59912109375	0.2	RANDOM	0	0.498400669614966	0	0	0	NONE	559.0	1
449.8291015625	0.2	RANDOM	0	0.794030937391653	0	0	0	NONE	563.0	1
451.26904296875	0.2	COHERENT	1	0.668089366905406	0	0	180	LEFT	567.0	1
452.72900390625	0.2	COHERENT	1	0.580005910142518	0	0	0	RIGHT	571.0	1
454.11865234375	0.2	RANDOM	0	0.599790398222467	0	0	0	NONE	575.0	1
455.3486328125	0.2	RANDOM	0	0.663573752569391	0	0	0	NONE	579.0	1
456.69873046875	0.2	COHERENT	1	0.598313466340642	0	0	0	RIGHT	583.0	1
458.1982421875	0.2	RANDOM	0	0.469255639009134	0	0	0	NONE	587.0	1
459.41845703125	0.2	RANDOM	0	n/a	0	1	0	NONE	591.0	0
460.48828125	0.2	COHERENT	1	0.617970273613992	0	0	180	LEFT	595.0	1
461.80810546875	0.2	COHERENT	1	0.657643688447934	0	0	0	RIGHT	599.0	1
463.17822265625	0.2	COHERENT	1	0.648586199183683	0	0	180	LEFT	603.0	1
464.427734375	0.2	RANDOM	0	0.66854666341078	0	0	0	NONE	607.0	1
465.85791015625	0.2	COHERENT	1	0.754176415030997	0	0	0	RIGHT	611.0	1
467.2978515625	0.2	COHERENT	1	0.673073446044782	0	0	0	RIGHT	615.0	1
468.8076171875	0.2	RANDOM	0	0.749825910389973	0	0	0	NONE	618.0	1
470.197265625	0.2	RANDOM	0	0.793726978592531	0	0	0	NONE	622.0	1
471.8271484375	0.2	RANDOM	0	n/a	0	1	0	NONE	625.0	0
473.2470703125	0.2	COHERENT	1	0.634342997733711	0	0	0	RIGHT	629.0	1
474.5869140625	0.2	COHERENT	1	0.698079565969692	0	0	180	LEFT	633.0	1
475.98681640625	0.2	COHERENT	1	0.727614883295701	0	0	0	RIGHT	637.0	1
477.38671875	0.2	RANDOM	0	0.973497630056954	0	0	0	NONE	641.0	1
478.98681640625	0.2	COHERENT	1	0.693586288228289	0	0	0	RIGHT	644.0	1
480.45654296875	0.2	RANDOM	0	0.603327428222201	0	0	0	NONE	648.0	1
481.9765625	0.2	RANDOM	0	0.669257510453917	0	0	0	NONE	651.0	1
483.40625	0.2	COHERENT	1	0.535014574628349	0	0	180	LEFT	655.0	1
484.7763671875	0.2	RANDOM	0	0.724763345285282	0	0	0	NONE	659.0	1
486.22607421875	0.2	COHERENT	1	0.704604870162257	0	0	180	LEFT	663.0	1
487.64599609375	0.2	RANDOM	0	0.894458985031179	0	0	0	NONE	667.0	1
489.24609375	0.2	RANDOM	0	0.988261515646627	0	0	0	NONE	670.0	1
490.916015625	0.2	RANDOM	0	0.732978080858175	0	0	0	NONE	673.0	1
492.39599609375	0.2	COHERENT	1	0.709840085072301	0	0	0	RIGHT	677.0	1
n/a	0.2	RANDOM	0	n/a	1	1	0	NONE	n/a	0
495.74560546875	0.2	COHERENT	1	0.863058863870265	0	0	0	RIGHT	679.0	1
497.28564453125	0.2	COHERENT	1	1.02316848221926	0	0	0	RIGHT	682.0	1
498.93505859375	0.2	COHERENT	1	0.813045416636214	0	0	0	RIGHT	684.0	1
500.6552734375	0.2	COHERENT	1	0.83962083328197	0	0	0	RIGHT	687.0	1
502.125	0.2	RANDOM	0	0.83355554220725	0	0	0	NONE	691.0	1
503.85498046875	0.2	RANDOM	0	n/a	0	1	0	NONE	694.0	0
505.4248046875	0.2	COHERENT	1	0.729081250571653	0	0	180	LEFT	697.0	1
507.02490234375	0.2	COHERENT	1	0.994711660215671	0	0	0	RIGHT	700.0	1
508.89453125	0.2	COHERENT	1	0.854626195573474	0	0	0	RIGHT	702.0	1
510.62451171875	0.2	COHERENT	1	0.754515387952324	0	0	0	RIGHT	705.0	1
512.2744140625	0.2	RANDOM	0	0.579302609246042	0	0	0	NONE	708.0	1
513.71435546875	0.2	RANDOM	0	0.699085316435685	0	0	0	NONE	712.0	1
515.01416015625	0.2	RANDOM	0	0.757929566679195	0	0	0	NONE	716.0	1
516.59375	0.2	RANDOM	0	0.724781456038272	0	0	0	NONE	719.0	1
518.00390625	0.2	RANDOM	0	0.964278049556469	0	0	0	NONE	723.0	1
519.66357421875	0.2	COHERENT	1	0.667345014970124	0	0	0	RIGHT	726.0	1
520.95361328125	0.2	RANDOM	0	0.622970954276752	0	0	0	NONE	730.0	1
522.38330078125	0.2	COHERENT	1	0.890025472773232	0	0	0	RIGHT	734.0	1
524.0234375	0.2	RANDOM	0	0.759745773327722	0	0	0	NONE	737.0	1
525.39306640625	0.2	RANDOM	0	0.81882214305142	0	0	0	NONE	741.0	1
527.05322265625	0.2	RANDOM	0	0.919014147214511	0	0	0	NONE	744.0	1
528.77294921875	0.2	RANDOM	0	0.789214684560193	0	0	0	NONE	747.0	1
530.462890625	0.2	COHERENT	1	0.718972733960072	0	0	0	RIGHT	750.0	1
531.91259765625	0.2	COHERENT	1	0.624798631068643	0	0	0	RIGHT	754.0	1
533.1728515625	0.2	COHERENT	1	0.868599848654412	0	0	0	RIGHT	758.0	1
534.8427734375	0.2	RANDOM	0	n/a	0	1	0	NONE	761.0	0
536.732421875	0.2	RANDOM	0	0.594203834710243	0	0	0	NONE	763.0	1
537.93212890625	0.2	RANDOM	0	0.607883489905817	0	0	0	NONE	767.0	1
539.38232421875	0.2	RANDOM	0	0.720018328081551	0	0	0	NONE	771.0	1
540.73193359375	0.2	COHERENT	1	0.822594009144268	0	0	0	RIGHT	775.0	1
542.47216796875	0.2	RANDOM	0	0.649374016925776	0	0	0	NONE	778.0	1
543.73193359375	0.2	COHERENT	1	0.783290959202532	0	0	180	LEFT	782.0	1
545.15185546875	0.2	RANDOM	0	0.693104240361208	0	0	0	NONE	786.0	1
546.44189453125	0.2	COHERENT	1	0.887872406125098	0	0	180	LEFT	790.0	1
548.12158203125	0.2	COHERENT	1	0.579746322686788	0	0	180	LEFT	793.0	1
549.611328125	0.2	RANDOM	0	0.709972897258922	0	0	0	NONE	797.0	1
n/a	0.2	RANDOM	0	0.749841606375412	1	0	0	NONE	n/a	1
n/a	0.2	COHERENT	1	0.620462011338077	1	0	180	LEFT	n/a	1
n/a	0.2	RANDOM	0	0.848719675431312	1	0	0	NONE	n/a	1
n/a	0.2	COHERENT	1	0.69442059023504	1	0	0	RIGHT	n/a	1
628.5654296875	0.2	RANDOM	0	0.788436827732767	0	0	0	NONE	801.0	1
629.91552734375	0.2	COHERENT	1	0.638187910529268	0	0	180	LEFT	805.0	1
631.25537109375	0.2	COHERENT	1	0.673035111618447	0	0	0	RIGHT	809.0	1
632.5849609375	0.2	RANDOM	0	0.57798686306387	0	0	0	NONE	813.0	1
633.875	0.2	COHERENT	1	0.608714471608437	0	0	0	RIGHT	817.0	1
635.18505859375	0.2	COHERENT	1	0.808543989056488	0	0	0	RIGHT	821.0	1
636.724609375	0.2	RANDOM	0	0.595321871842771	0	0	0	NONE	824.0	1
638.15478515625	0.2	COHERENT	1	0.519169477103333	0	0	180	LEFT	828.0	1
639.50439453125	0.2	RANDOM	0	0.56459637621947	0	0	0	NONE	832.0	1
640.92431640625	0.2	RANDOM	0	0.630739561641349	0	0	0	NONE	836.0	1
642.39453125	0.2	COHERENT	1	0.96957152072082	0	0	180	LEFT	840.0	1
644.18408203125	0.2	COHERENT	1	0.749302509636891	0	0	180	LEFT	843.0	1
645.7841796875	0.2	RANDOM	0	0.489226064150444	0	0	0	NONE	846.0	1
647.01416015625	0.2	COHERENT	1	0.840003875700859	0	0	0	RIGHT	850.0	1
648.6337890625	0.2	RANDOM	0	0.534518641850354	0	0	0	NONE	853.0	1
650.06396484375	0.2	COHERENT	1	0.578559162848251	0	0	180	LEFT	857.0	1
651.4638671875	0.2	COHERENT	1	0.764352545118982	0	0	180	LEFT	861.0	1
653.1337890625	0.2	COHERENT	1	n/a	0	1	0	RIGHT	864.0	0
654.83349609375	0.2	COHERENT	1	n/a	0	1	0	RIGHT	866.0	0
656.5234375	0.2	RANDOM	0	0.752786716608171	0	0	0	NONE	868.0	1
657.873046875	0.2	RANDOM	0	0.767561770495377	0	0	0	NONE	872.0	1
659.29296875	0.2	COHERENT	1	n/a	0	1	0	RIGHT	876.0	0
661.29296875	0.2	RANDOM	0	0.859181955412168	0	0	0	NONE	877.0	1
662.86279296875	0.2	COHERENT	1	0.74795265487046	0	0	0	RIGHT	880.0	1
664.33251953125	0.2	RANDOM	0	0.744711735676901	0	0	0	NONE	884.0	1
665.78271484375	0.2	RANDOM	0	n/a	0	1	0	NONE	888.0	0
667.58251953125	0.2	RANDOM	0	0.86348356102053	0	0	0	NONE	890.0	1
669.2021484375	0.2	COHERENT	1	0.829164590218625	0	0	0	RIGHT	893.0	1
670.8623046875	0.2	COHERENT	1	0.719846879623219	0	0	0	RIGHT	896.0	1
672.27197265625	0.2	RANDOM	0	0.653756819075625	0	0	0	NONE	900.0	1
673.6220703125	0.2	COHERENT	1	0.76864449165987	0	0	0	RIGHT	904.0	1
675.02197265625	0.2	COHERENT	1	0.993259479696462	0	0	0	RIGHT	908.0	1
676.65185546875	0.2	RANDOM	0	0.698272445486054	0	0	0	NONE	911.0	1
678.24169921875	0.2	COHERENT	1	0.934962174183966	0	0	180	LEFT	914.0	1
679.8916015625	0.2	COHERENT	1	n/a	0	1	180	LEFT	917.0	0
681.69140625	0.2	RANDOM	0	0.859520626486756	0	0	0	NONE	919.0	1
683.33154296875	0.2	RANDOM	0	0.834300799680477	0	0	0	NONE	922.0	1
684.88134765625	0.2	RANDOM	0	n/a	0	1	0	NONE	925.0	0
686.73095703125	0.2	RANDOM	0	n/a	0	1	0	NONE	926.0	0
688.65087890625	0.2	COHERENT	1	0.724672791522153	0	0	0	RIGHT	927.0	1
690.08056640625	0.2	COHERENT	1	0.768452517681453	0	0	180	LEFT	931.0	1
691.48046875	0.2	COHERENT	1	0.803734980526315	0	0	0	RIGHT	935.0	1
693.03076171875	0.2	RANDOM	0	0.748035360641097	0	0	0	NONE	938.0	1
694.55029296875	0.2	COHERENT	1	n/a	0	1	0	RIGHT	941.0	0
696.400390625	0.2	RANDOM	0	n/a	0	1	0	NONE	942.0	0
698.22021484375	0.2	RANDOM	0	n/a	0	1	0	NONE	943.0	0
700.08984375	0.2	RANDOM	0	0.934209370563622	0	0	0	NONE	944.0	1
701.90966796875	0.2	COHERENT	1	0.65481026119005	0	0	0	RIGHT	947.0	1
703.18994140625	0.2	COHERENT	1	0.693886021185335	0	0	0	RIGHT	951.0	1
704.52978515625	0.2	RANDOM	0	1.00747128917465	0	0	0	NONE	955.0	1
706.259765625	0.2	RANDOM	0	n/a	0	1	0	NONE	957.0	0
707.9296875	0.2	RANDOM	0	0.943153667623392	0	0	0	NONE	959.0	1
709.4794921875	0.2	COHERENT	1	0.817953128768295	0	0	180	LEFT	962.0	1
710.92919921875	0.2	COHERENT	1	0.782720168647757	0	0	0	RIGHT	966.0	1
712.529296875	0.2	COHERENT	1	1.05463078363118	0	0	0	RIGHT	969.0	1
714.37890625	0.2	RANDOM	0	0.659082285902969	0	0	0	NONE	971.0	1
715.89892578125	0.2	COHERENT	1	0.690183579644327	0	0	0	RIGHT	974.0	1
717.21875	0.2	COHERENT	1	0.702722559266931	0	0	180	LEFT	978.0	1
718.56884765625	0.2	RANDOM	0	1.04893736667827	0	0	0	NONE	982.0	1
720.46826171875	0.2	COHERENT	1	0.829312192853195	0	0	0	RIGHT	984.0	1
722.13818359375	0.2	RANDOM	0	1.07931905984651	0	0	0	NONE	987.0	1
724.05810546875	0.2	RANDOM	0	1.01500807890488	0	0	0	NONE	989.0	1
725.73828125	0.2	COHERENT	1	0.76270718323758	0	0	180	LEFT	991.0	1
727.158203125	0.2	RANDOM	0	0.808684045543487	0	0	0	NONE	995.0	1
728.80810546875	0.2	COHERENT	1	0.979487761508153	0	0	180	LEFT	998.0	1
730.49755859375	0.2	COHERENT	1	0.948263616493932	0	0	180	LEFT	1001.0	1
732.12744140625	0.2	COHERENT	1	1.01300472781213	0	0	180	LEFT	1004.0	1
733.87744140625	0.2	COHERENT	1	0.789952395886758	0	0	180	LEFT	1006.0	1
735.29736328125	0.2	RANDOM	0	0.632690391551478	0	0	0	NONE	1010.0	1
736.63720703125	0.2	COHERENT	1	0.948468267999488	0	0	0	RIGHT	1014.0	1
738.4873046875	0.2	RANDOM	0	0.669047727568341	0	0	0	NONE	1017.0	1
739.9072265625	0.2	COHERENT	1	0.770042943613134	0	0	0	RIGHT	1021.0	1
741.56689453125	0.2	COHERENT	1	n/a	0	1	0	RIGHT	1024.0	0
742.9765625	0.2	COHERENT	1	0.822656793086935	0	0	180	LEFT	1028.0	1
744.53662109375	0.2	COHERENT	1	0.989453806865185	0	0	180	LEFT	1031.0	1
746.15673828125	0.2	RANDOM	0	0.572988597168205	0	0	0	NONE	1033.0	1
747.40625	0.2	RANDOM	0	0.903027182127062	0	0	0	NONE	1037.0	1
749.09619140625	0.2	RANDOM	0	n/a	0	1	0	NONE	1040.0	0
750.81640625	0.2	RANDOM	0	0.659644926619876	0	0	0	NONE	1043.0	1
752.2958984375	0.2	RANDOM	0	0.724321141074142	0	0	0	NONE	1047.0	1
753.916015625	0.2	RANDOM	0	0.839377545503794	0	0	0	NONE	1050.0	1
755.64599609375	0.2	RANDOM	0	1.07979718371735	0	0	0	NONE	1053.0	1
757.48583984375	0.2	RANDOM	0	0.940732561835375	0	0	0	NONE	1055.0	1
759.25537109375	0.2	COHERENT	1	0.644466304793696	0	0	180	LEFT	1058.0	1
760.75537109375	0.2	RANDOM	0	n/a	0	1	0	NONE	1062.0	0
762.5751953125	0.2	COHERENT	1	1.08278636344858	0	0	180	LEFT	1063.0	1
764.4052734375	0.2	RANDOM	0	0.929619803987407	0	0	0	NONE	1065.0	1
766.0048828125	0.2	COHERENT	1	0.7737311983974	0	0	180	LEFT	1068.0	1
767.5546875	0.2	COHERENT	1	0.814460168267033	0	0	0	RIGHT	1071.0	1
769.0947265625	0.2	RANDOM	0	0.714460138082359	0	0	0	NONE	1074.0	1
770.61474609375	0.2	COHERENT	1	0.740194008419621	0	0	180	LEFT	1077.0	1
772.2646484375	0.2	COHERENT	1	0.729944227936812	0	0	0	RIGHT	1080.0	1
773.66455078125	0.2	COHERENT	1	0.743872000444298	0	0	180	LEFT	1084.0	1
775.04443359375	0.2	RANDOM	0	0.697523867708242	0	0	0	NONE	1088.0	1
776.63427734375	0.2	RANDOM	0	0.744444602074964	0	0	0	NONE	1091.0	1
778.26416015625	0.2	COHERENT	1	0.909122355943055	0	0	0	RIGHT	1094.0	1
779.86376953125	0.2	RANDOM	0	0.712956945609221	0	0	0	NONE	1097.0	1
781.36376953125	0.2	RANDOM	0	0.699832988676008	0	0	0	NONE	1101.0	1
782.87353515625	0.2	COHERENT	1	1.08947526810698	0	0	0	RIGHT	1104.0	1
784.673828125	0.2	RANDOM	0	0.61846318793323	0	0	0	NONE	1106.0	1
785.95361328125	0.2	COHERENT	1	0.833118167529847	0	0	180	LEFT	1110.0	1
787.5732421875	0.2	RANDOM	0	0.593996466592216	0	0	0	NONE	1113.0	1
789.00341796875	0.2	RANDOM	0	0.719863782992434	0	0	0	NONE	1117.0	1
790.4130859375	0.2	COHERENT	1	0.592703660696316	0	0	0	RIGHT	1121.0	1
791.873046875	0.2	COHERENT	1	0.634398235529716	0	0	180	LEFT	1125.0	1
793.29296875	0.2	COHERENT	1	0.705137929983266	0	0	180	LEFT	1129.0	1
794.74267578125	0.2	COHERENT	1	0.738056939602757	0	0	0	RIGHT	1133.0	1
796.33251953125	0.2	COHERENT	1	n/a	0	1	180	LEFT	1136.0	0
798.1328125	0.2	COHERENT	1	0.886831339691525	0	0	180	LEFT	1138.0	1
799.8525390625	0.2	RANDOM	0	0.852432077886078	0	0	0	NONE	1141.0	1
801.58251953125	0.2	COHERENT	1	0.754164643041804	0	0	180	LEFT	1144.0	1
803.10205078125	0.2	RANDOM	0	1.00490137336874	0	0	0	NONE	1147.0	1
804.7021484375	0.2	COHERENT	1	0.578722461468715	0	0	0	RIGHT	1149.0	1
806.10205078125	0.2	COHERENT	1	0.645011740295558	0	0	0	RIGHT	1153.0	1
807.501953125	0.2	COHERENT	1	0.638493982249656	0	0	180	LEFT	1157.0	1
809.0419921875	0.2	RANDOM	0	0.639246785869545	0	0	0	NONE	1160.0	1
810.36181640625	0.2	COHERENT	1	0.763733157377374	0	0	180	LEFT	1164.0	1
811.94140625	0.2	COHERENT	1	0.723822793529507	0	0	0	RIGHT	1167.0	1
n/a	0.2	COHERENT	1	0.688706345917126	1	0	180	LEFT	n/a	1
814.861328125	0.2	RANDOM	0	0.729306427596839	0	0	0	NONE	1170.0	1
816.291015625	0.2	RANDOM	0	0.888246393168174	0	0	0	NONE	1174.0	1
817.81103515625	0.2	COHERENT	1	0.983138587403573	0	0	0	RIGHT	1177.0	1
819.56103515625	0.2	RANDOM	0	0.554922215826537	0	0	0	NONE	1180.0	1
820.86083984375	0.2	COHERENT	1	0.579924713601031	0	0	0	RIGHT	1184.0	1
822.2509765625	0.2	RANDOM	0	0.989505422510319	0	0	0	NONE	1188.0	1
823.87060546875	0.2	RANDOM	0	0.823294593427363	0	0	0	NONE	1191.0	1
825.54052734375	0.2	RANDOM	0	0.720116729838082	0	0	0	NONE	1194.0	1
827.00048828125	0.2	RANDOM	0	0.839898833335155	0	0	0	NONE	1198.0	1
828.7001953125	0.2	RANDOM	0	0.669417488768886	0	0	0	NONE	1201.0	1
830.0400390625	0.2	RANDOM	0	0.743636258813694	0	0	0	NONE	1205.0	1
831.58984375	0.2	RANDOM	0	0.709412973154485	0	0	0	NONE	1208.0	1
833.009765625	0.2	RANDOM	0	0.788099967732705	0	0	0	NONE	1212.0	1
834.509765625	0.2	COHERENT	1	0.715033343405139	0	0	180	LEFT	1216.0	1
835.8798828125	0.2	COHERENT	1	0.587726222166566	0	0	0	RIGHT	1220.0	1
837.0595703125	0.2	COHERENT	1	0.588520680517377	0	0	180	LEFT	1224.0	1
838.37939453125	0.2	RANDOM	0	0.714472211917837	0	0	0	NONE	1228.0	1
839.7294921875	0.2	COHERENT	1	0.673429624180699	0	0	180	LEFT	1232.0	1
841.09912109375	0.2	COHERENT	1	0.647829169721717	0	0	180	LEFT	1236.0	1
842.41943359375	0.2	RANDOM	0	0.574004308547956	0	0	0	NONE	1240.0	1
843.869140625	0.2	RANDOM	0	0.884746188365625	0	0	0	NONE	1244.0	1
845.4189453125	0.2	RANDOM	0	0.867452834317646	0	0	0	NONE	1247.0	1
847.0390625	0.2	RANDOM	0	0.749398496626327	0	0	0	NONE	1250.0	1
848.5986328125	0.2	RANDOM	0	0.55419688018128	0	0	0	NONE	1253.0	1
850.0087890625	0.2	RANDOM	0	0.599971807595011	0	0	0	NONE	1257.0	1
851.23876953125	0.2	COHERENT	1	0.57285789790285	0	0	0	RIGHT	1261.0	1
852.58837890625	0.2	RANDOM	0	0.844695164338646	0	0	0	NONE	1265.0	1
n/a	0.2	COHERENT	1	0.909607120423516	1	0	180	LEFT	n/a	1
n/a	0.2	RANDOM	0	0.548675515379273	1	0	0	NONE	n/a	1
n/a	0.2	RANDOM	0	0.823532447979233	1	0	0	NONE	n/a	1
886.19580078125	0.2	RANDOM	0	0.663395663500978	0	0	0	NONE	1269.0	1
887.74560546875	0.2	RANDOM	0	0.790183609829455	0	0	0	NONE	1272.0	1
889.36572265625	0.2	RANDOM	0	0.584950749317159	0	0	0	NONE	1275.0	1
890.6357421875	0.2	RANDOM	0	0.732705212184101	0	0	0	NONE	1279.0	1
892.015625	0.2	COHERENT	1	1.10860505247729	0	0	180	LEFT	1283.0	1
893.75537109375	0.2	RANDOM	0	0.683366692333493	0	0	0	NONE	1285.0	1
895.10546875	0.2	COHERENT	1	0.652084894757081	0	0	0	RIGHT	1289.0	1
896.375	0.2	RANDOM	0	0.82796837500382	0	0	0	NONE	1293.0	1
898.044921875	0.2	RANDOM	0	0.69984053482267	0	0	0	NONE	1296.0	1
899.47509765625	0.2	COHERENT	1	0.79464398636992	0	0	180	LEFT	1300.0	1
901.16455078125	0.2	COHERENT	1	0.719417654784593	0	0	180	LEFT	1303.0	1
902.7646484375	0.2	COHERENT	1	0.704178663782386	0	0	180	LEFT	1306.0	1
904.14453125	0.2	RANDOM	0	0.742998760318642	0	0	0	NONE	1310.0	1
905.71435546875	0.2	RANDOM	0	0.814943725363719	0	0	0	NONE	1313.0	1
907.18408203125	0.2	RANDOM	0	0.797643730706113	0	0	0	NONE	1317.0	1
908.71435546875	0.2	RANDOM	0	0.779230830296456	0	0	0	NONE	1320.0	1
910.10400390625	0.2	RANDOM	0	0.798187656978826	0	0	0	NONE	1324.0	1
911.75390625	0.2	RANDOM	0	0.649068850742879	0	0	0	NONE	1327.0	1
913.10400390625	0.2	COHERENT	1	0.697869179392455	0	0	0	RIGHT	1331.0	1
914.48388671875	0.2	COHERENT	1	0.602708342325514	0	0	0	RIGHT	1335.0	1
915.853515625	0.2	COHERENT	1	0.674493932746827	0	0	0	RIGHT	1339.0	1
917.20361328125	0.2	COHERENT	1	0.803416533125073	0	0	180	LEFT	1343.0	1
918.603515625	0.2	RANDOM	0	0.698185212027056	0	0	0	NONE	1347.0	1
919.943359375	0.2	RANDOM	0	0.992915375395114	0	0	0	NONE	1351.0	1
921.61328125	0.2	COHERENT	1	0.822715351187071	0	0	180	LEFT	1354.0	1
923.123046875	0.2	RANDOM	0	0.72861006915582	0	0	0	NONE	1357.0	1
924.5927734375	0.2	RANDOM	0	0.84445097102298	0	0	0	NONE	1361.0	1
926.03271484375	0.2	RANDOM	0	n/a	0	1	0	NONE	1365.0	0
927.73291015625	0.2	COHERENT	1	0.455083069494776	0	0	0	RIGHT	1368.0	1
n/a	0.2	COHERENT	1	n/a	1	1	0	RIGHT	n/a	0
930.28271484375	0.2	RANDOM	0	0.864656232256948	0	0	0	NONE	1372.0	1
931.97265625	0.2	COHERENT	1	0.534499021868669	0	0	180	LEFT	1375.0	1
933.30224609375	0.2	COHERENT	1	0.829085808444688	0	0	0	RIGHT	1379.0	1
934.80224609375	0.2	COHERENT	1	0.723178654425737	0	0	180	LEFT	1383.0	1
936.39208984375	0.2	RANDOM	0	0.679874637369721	0	0	0	NONE	1386.0	1
937.841796875	0.2	COHERENT	1	0.694732397027565	0	0	180	LEFT	1390.0	1
939.27197265625	0.2	RANDOM	0	0.7694908675021	0	0	0	NONE	1394.0	1
940.91162109375	0.2	COHERENT	1	0.699347318657601	0	0	0	RIGHT	1397.0	1
942.42138671875	0.2	RANDOM	0	0.763916075979523	0	0	0	NONE	1400.0	1
944.09130859375	0.2	RANDOM	0	0.650257217965191	0	0	0	NONE	1403.0	1
945.611328125	0.2	RANDOM	0	0.783641402267222	0	0	0	NONE	1406.0	1
947.04150390625	0.2	RANDOM	0	0.608223368364634	0	0	0	NONE	1410.0	1
948.361328125	0.2	RANDOM	0	0.93838842674586	0	0	0	NONE	1414.0	1
950.03125	0.2	COHERENT	1	0.865137072741163	0	0	0	RIGHT	1417.0	1
951.630859375	0.2	RANDOM	0	0.729934267023054	0	0	0	NONE	1420.0	1
953.0009765625	0.2	COHERENT	1	0.613698852593188	0	0	180	LEFT	1424.0	1
954.23095703125	0.2	RANDOM	0	0.82363145342697	0	0	0	NONE	1428.0	1
955.75048828125	0.2	COHERENT	1	0.408400491525754	0	0	0	RIGHT	1431.0	1
956.80029296875	0.2	COHERENT	1	n/a	0	1	180	LEFT	1435.0	0
958.22021484375	0.2	COHERENT	1	0.809040827371518	0	0	0	RIGHT	1439.0	1
959.7705078125	0.2	COHERENT	1	0.540079246617097	0	0	180	LEFT	1442.0	1
961.02001953125	0.2	COHERENT	1	n/a	0	1	0	RIGHT	1446.0	0
962.83984375	0.2	COHERENT	1	0.608470278292771	0	0	180	LEFT	1448.0	1
964.18994140625	0.2	COHERENT	1	0.589916415857715	0	0	0	RIGHT	1452.0	1
965.56005859375	0.2	RANDOM	0	0.653212289111707	0	0	0	NONE	1456.0	1
966.93994140625	0.2	RANDOM	0	0.774961522196918	0	0	0	NONE	1460.0	1
968.3095703125	0.2	COHERENT	1	0.87788734447804	0	0	0	RIGHT	1464.0	1
969.87939453125	0.2	RANDOM	0	0.653411205545126	0	0	0	NONE	1467.0	1
971.17919921875	0.2	RANDOM	0	0.788408152374359	0	0	0	NONE	1471.0	1
972.8193359375	0.2	RANDOM	0	0.719193685142727	0	0	0	NONE	1474.0	1
974.42919921875	0.2	RANDOM	0	0.78999706907689	0	0	0	NONE	1477.0	1
976.13916015625	0.2	COHERENT	1	0.689830721812996	0	0	180	LEFT	1480.0	1
977.48876953125	0.2	COHERENT	1	n/a	0	1	180	LEFT	1484.0	0
979.298828125	0.2	RANDOM	0	0.77808502334301	0	0	0	NONE	1486.0	1
980.71875	0.2	COHERENT	1	0.833166462870395	0	0	0	RIGHT	1490.0	1
982.36865234375	0.2	RANDOM	0	0.694993493712445	0	0	0	NONE	1493.0	1
983.6884765625	0.2	COHERENT	1	0.832895405271756	0	0	180	LEFT	1497.0	1
985.17822265625	0.2	RANDOM	0	0.667710852174423	0	0	0	NONE	1501.0	1
986.4384765625	0.2	COHERENT	1	n/a	0	1	180	LEFT	1505.0	0
988.078125	0.2	COHERENT	1	0.928323677786921	0	0	180	LEFT	1508.0	1
989.77783203125	0.2	COHERENT	1	1.12408733125676	0	0	0	RIGHT	1511.0	1
991.61767578125	0.2	RANDOM	0	0.677886680416577	0	0	0	NONE	1513.0	1
993.017578125	0.2	RANDOM	0	0.764573798147921	0	0	0	NONE	1517.0	1
n/a	0.2	RANDOM	0	0.869231913923159	1	0	0	NONE	n/a	1
996.1474609375	0.2	COHERENT	1	n/a	0	1	0	RIGHT	1520.0	0
997.58740234375	0.2	COHERENT	1	0.674962699395564	0	0	0	RIGHT	1524.0	1
999.01708984375	0.2	RANDOM	0	0.729929437488863	0	0	0	NONE	1528.0	1
1000.6171875	0.2	COHERENT	1	0.674641535381397	0	0	180	LEFT	1531.0	1
1002.01708984375	0.2	RANDOM	0	0.624474146749435	0	0	0	NONE	1535.0	1
1003.537109375	0.2	COHERENT	1	n/a	0	1	0	RIGHT	1538.0	0
1005.32666015625	0.2	COHERENT	1	n/a	0	1	180	LEFT	1540.0	0
1007.07666015625	0.2	COHERENT	1	0.718874935895201	0	0	180	LEFT	1542.0	1
1008.69677734375	0.2	COHERENT	1	0.719653698261027	0	0	0	RIGHT	1545.0	1
1010.29638671875	0.2	RANDOM	0	0.624452112000654	0	0	0	NONE	1548.0	1
1011.56640625	0.2	COHERENT	1	0.80895600868007	0	0	180	LEFT	1552.0	1
1013.09619140625	0.2	COHERENT	1	0.924002150350134	0	0	0	RIGHT	1555.0	1
1014.64599609375	0.2	COHERENT	1	0.702871972976482	0	0	0	RIGHT	1558.0	1
1016.0361328125	0.2	RANDOM	0	0.603646177469273	0	0	0	NONE	1562.0	1
1017.26611328125	0.2	COHERENT	1	0.613438963292083	0	0	180	LEFT	1566.0	1
1018.7158203125	0.2	COHERENT	1	0.729347176789815	0	0	0	RIGHT	1570.0	1
1020.28564453125	0.2	RANDOM	0	0.724194969496693	0	0	0	NONE	1573.0	1
1021.70556640625	0.2	RANDOM	0	1.11790311290633	0	0	0	NONE	1577.0	1
1023.45556640625	0.2	RANDOM	0	0.722661592436452	0	0	0	NONE	1579.0	1
1025.00537109375	0.2	COHERENT	1	0.534476685273148	0	0	0	RIGHT	1582.0	1
1026.38525390625	0.2	RANDOM	0	0.699365731255966	0	0	0	NONE	1586.0	1
1027.794921875	0.2	COHERENT	1	0.638166781317977	0	0	0	RIGHT	1590.0	1
1029.3251953125	0.2	COHERENT	1	0.899660393202794	0	0	180	LEFT	1593.0	1
1030.8447265625	0.2	COHERENT	1	0.813652730543254	0	0	0	RIGHT	1596.0	1
1032.41455078125	0.2	COHERENT	1	0.719582160787922	0	0	0	RIGHT	1599.0	1
1033.724609375	0.2	RANDOM	0	0.568430724409154	0	0	0	NONE	1603.0	1
1034.89453125	0.2	COHERENT	1	0.798192486512562	0	0	0	RIGHT	1607.0	1
1036.33447265625	0.2	COHERENT	1	0.582980903117004	0	0	180	LEFT	1611.0	1
n/a	0.2	COHERENT	1	n/a	1	1	0	RIGHT	n/a	0
n/a	0.2	COHERENT	1	1.0782514309758	1	0	0	RIGHT	n/a	1
1041.2841796875	0.2	RANDOM	0	0.624094424634677	0	0	0	NONE	1614.0	1
1042.56396484375	0.2	COHERENT	1	0.808206223518937	0	0	180	LEFT	1618.0	1
1044.07373046875	0.2	RANDOM	0	0.907930366570781	0	0	0	NONE	1621.0	1
1045.60400390625	0.2	RANDOM	0	0.593678321036805	0	0	0	NONE	1624.0	1
1047.0537109375	0.2	RANDOM	0	0.679648856652875	0	0	0	NONE	1628.0	1
1048.5537109375	0.2	RANDOM	0	0.83447919059472	0	0	0	NONE	1632.0	1
1049.99365234375	0.2	RANDOM	0	0.738371463007752	0	0	0	NONE	1636.0	1
1051.42333984375	0.2	COHERENT	1	0.698120013317748	0	0	180	LEFT	1640.0	1
1052.97314453125	0.2	COHERENT	1	0.579947955733587	0	0	180	LEFT	1643.0	1
1054.1630859375	0.2	RANDOM	0	0.718016788064233	0	0	0	NONE	1647.0	1
1055.533203125	0.2	COHERENT	1	0.727645973421204	0	0	0	RIGHT	1651.0	1
1057.1630859375	0.2	RANDOM	0	0.649173893108127	0	0	0	NONE	1654.0	1
1058.56298828125	0.2	COHERENT	1	0.859352800178385	0	0	0	RIGHT	1658.0	1
1060.0126953125	0.2	COHERENT	1	0.817958863840431	0	0	0	RIGHT	1662.0	1
1061.58251953125	0.2	RANDOM	0	0.739578242828429	0	0	0	NONE	1665.0	1
1062.9326171875	0.2	COHERENT	1	1.04861137312946	0	0	0	RIGHT	1669.0	1
1064.8525390625	0.2	RANDOM	0	0.584416482112829	0	0	0	NONE	1671.0	1
1066.0322265625	0.2	COHERENT	1	0.638350605457163	0	0	180	LEFT	1675.0	1
1067.35205078125	0.2	COHERENT	1	0.713128997759668	0	0	0	RIGHT	1679.0	1
1068.72216796875	0.2	COHERENT	1	0.567924227025287	0	0	0	RIGHT	1683.0	1
1070.0419921875	0.2	RANDOM	0	0.549672814160658	0	0	0	NONE	1687.0	1
1071.4619140625	0.2	RANDOM	0	0.774659072627401	0	0	0	NONE	1691.0	1
1073.01171875	0.2	RANDOM	0	0.764373976177012	0	0	0	NONE	1694.0	1
1074.63134765625	0.2	COHERENT	1	0.670009710382146	0	0	180	LEFT	1697.0	1
1076.19140625	0.2	RANDOM	0	0.719902117418314	0	0	0	NONE	1700.0	1
1077.64111328125	0.2	COHERENT	1	0.534823204341592	0	0	180	LEFT	1704.0	1
1079.03125	0.2	RANDOM	0	0.759618998058613	0	0	0	NONE	1708.0	1
1080.611328125	0.2	COHERENT	1	0.764119821948043	0	0	180	LEFT	1711.0	1
1082.28076171875	0.2	COHERENT	1	0.599419731483977	0	0	180	LEFT	1714.0	1
1083.6806640625	0.2	COHERENT	1	0.869913783762058	0	0	0	RIGHT	1718.0	1
1085.4208984375	0.2	RANDOM	0	0.544609349555685	0	0	0	NONE	1721.0	1
1086.6904296875	0.2	COHERENT	1	0.6747800826397	0	0	180	LEFT	1725.0	1
1088.1904296875	0.2	RANDOM	0	0.944424438770511	0	0	0	NONE	1729.0	1
1089.87060546875	0.2	RANDOM	0	0.944147947946476	0	0	0	NONE	1732.0	1
1091.64013671875	0.2	RANDOM	0	n/a	0	1	0	NONE	1735.0	0
1093.66015625	0.2	COHERENT	1	0.534444387764779	0	0	180	LEFT	1736.0	1
1094.93994140625	0.2	RANDOM	0	0.909609837036442	0	0	0	NONE	1740.0	1
1096.6796875	0.2	RANDOM	0	0.864399361414144	0	0	0	NONE	1743.0	1
1098.349609375	0.2	RANDOM	0	0.749118383650966	0	0	0	NONE	1746.0	1
1099.8095703125	0.2	COHERENT	1	0.635094895817019	0	0	180	LEFT	1750.0	1
1101.24951171875	0.2	RANDOM	0	0.80965508373356	0	0	0	NONE	1754.0	1
1102.66943359375	0.2	RANDOM	0	0.908595333039557	0	0	0	NONE	1758.0	1
1104.34912109375	0.2	COHERENT	1	0.464009859493672	0	0	180	LEFT	1761.0	1
