onset	duration	trial_type	trial_type_id	response_time	repsonse_accuracy	bad_epoch	outliers	event_num
22.37158203125	0.2	SCRAMBLED	0	1.07592262912658	1	0	0	1
24.29150390625	0.2	SCRAMBLED	0	0.686008781223791	1	0	0	5
25.68115234375	0.2	SCRAMBLED	0	0.568717932928848	1	0	0	13
27.00146484375	0.2	FACES	1	0.459529160772945	1	0	0	21
28.43115234375	0.2	SCRAMBLED	0	0.436436040323315	1	0	0	29
NaN	0.2	FACES	1	0.440334647559212	1	1	0	NaN
30.80078125	0.2	SCRAMBLED	0	0.422190850647894	1	0	0	37
32.10107421875	0.2	SCRAMBLED	0	NaN	0	0	1	45
33.3505859375	0.2	FACES	1	0.473887541662407	1	0	0	53
34.78076171875	0.2	FACES	1	0.391641598584101	1	0	0	61
35.99072265625	0.2	FACES	1	0.381379834092513	1	0	0	69
37.150390625	0.2	SCRAMBLED	0	0.421364403868211	1	0	0	77
38.29052734375	0.2	SCRAMBLED	0	0.405223034984374	1	0	0	85
39.64013671875	0.2	FACES	1	0.36510897446351	1	0	0	93
40.89013671875	0.2	FACES	1	0.542880453780526	1	0	0	101
42.169921875	0.2	FACES	1	0.411664067796664	1	0	0	109
43.2900390625	0.2	SCRAMBLED	0	0.482618055415514	1	0	0	117
44.58984375	0.2	FACES	1	0.420377376485703	1	0	0	125
45.72998046875	0.2	FACES	1	0.429046012377512	1	0	0	133
47.0595703125	0.2	FACES	1	0.482027951889904	1	0	0	141
48.39990234375	0.2	FACES	1	0.31288103935367	1	0	0	149
49.45947265625	0.2	FACES	1	0.361738291048823	1	0	0	157
50.54931640625	0.2	SCRAMBLED	0	0.416604637881392	1	0	0	165
51.8994140625	0.2	SCRAMBLED	0	0.353533890054678	1	0	0	173
NaN	0.2	SCRAMBLED	0	0.457371887165209	1	1	0	NaN
54.04931640625	0.2	SCRAMBLED	0	0.422153723931842	1	0	0	181
55.43896484375	0.2	SCRAMBLED	0	0.359445791669714	1	0	0	189
56.51904296875	0.2	SCRAMBLED	0	0.315889510886336	1	0	0	197
57.5888671875	0.2	SCRAMBLED	0	0.335703406421089	1	0	0	205
58.888671875	0.2	SCRAMBLED	0	0.39659424240017	1	0	0	213
60.10888671875	0.2	SCRAMBLED	0	0.305405589773727	1	0	0	221
61.3388671875	0.2	FACES	1	0.423302237446478	1	0	0	229
62.58837890625	0.2	SCRAMBLED	0	0.493107409707591	1	0	0	237
63.82861328125	0.2	SCRAMBLED	0	0.397889451727679	1	0	0	245
64.92822265625	0.2	SCRAMBLED	0	0.37586183789972	1	0	0	253
66.17822265625	0.2	SCRAMBLED	0	0.336613463779941	1	0	0	261
67.30810546875	0.2	FACES	1	0.411454588593188	1	0	0	269
68.64794921875	0.2	SCRAMBLED	0	0.327368307305733	1	0	0	277
69.89794921875	0.2	FACES	1	0.407119817878993	1	0	0	285
71.06787109375	0.2	FACES	1	0.491937465325464	1	0	0	293
72.498046875	0.2	SCRAMBLED	0	0.402916650818952	1	0	0	301
73.57763671875	0.2	SCRAMBLED	0	NaN	0	0	1	309
74.837890625	0.2	SCRAMBLED	0	0.477437821802596	1	0	0	317
76.28759765625	0.2	SCRAMBLED	0	0.36823848513086	1	0	0	325
77.58740234375	0.2	SCRAMBLED	0	0.453188038074586	1	0	0	333
78.91748046875	0.2	SCRAMBLED	0	0.343294160116784	1	0	0	341
80.00732421875	0.2	FACES	1	0.395847180392593	1	0	0	349
81.1572265625	0.2	FACES	1	0.41066979617608	1	0	0	357
82.35693359375	0.2	FACES	1	0.405440663958871	1	0	0	365
83.68701171875	0.2	FACES	1	0.386398279733839	1	0	0	373
84.98681640625	0.2	SCRAMBLED	0	0.325028116694739	1	0	0	381
86.0068359375	0.2	SCRAMBLED	0	0.438037318690476	1	0	0	389
87.2568359375	0.2	FACES	1	0.526880649373197	1	0	0	397
88.44677734375	0.2	FACES	1	0.525488246526947	1	0	0	405
89.9267578125	0.2	FACES	1	NaN	0	0	1	413
91.16650390625	0.2	SCRAMBLED	0	0.436391065679345	1	0	0	421
92.31640625	0.2	SCRAMBLED	0	0.474372000058793	1	0	0	429
93.59619140625	0.2	SCRAMBLED	0	0.558112972677918	1	0	0	437
95.01611328125	0.2	SCRAMBLED	0	0.468943651299924	1	0	0	445
96.44580078125	0.2	SCRAMBLED	0	0.417789070739673	1	0	0	453
97.74609375	0.2	FACES	1	0.418315787184838	1	0	0	461
98.9560546875	0.2	FACES	1	0.498390873708559	1	0	0	469
100.1357421875	0.2	FACES	1	0.497293673546665	1	0	0	477
101.3056640625	0.2	SCRAMBLED	0	0.533136954127258	1	0	0	485
102.7353515625	0.2	SCRAMBLED	0	0.354412253869668	1	0	0	493
103.9853515625	0.2	FACES	1	0.452747950635967	1	0	0	501
105.35546875	0.2	SCRAMBLED	0	0.449627495261666	1	0	0	509
106.6455078125	0.2	FACES	1	0.468919805683981	1	0	0	517
107.9052734375	0.2	FACES	1	0.471070438739844	1	0	0	525
109.30517578125	0.2	FACES	1	0.438969712446124	1	0	0	533
110.59521484375	0.2	SCRAMBLED	0	0.453877749867388	1	0	0	541
111.89501953125	0.2	FACES	1	0.413700000422978	1	0	0	549
112.99462890625	0.2	FACES	1	0.547599772773538	1	0	0	557
114.49462890625	0.2	SCRAMBLED	0	0.47920511394841	1	0	0	564
115.64453125	0.2	SCRAMBLED	0	0.517818108059146	1	0	0	572
116.89453125	0.2	FACES	1	0.577120041241869	1	0	0	580
118.1845703125	0.2	FACES	1	0.550742564544635	1	0	0	588
119.564453125	0.2	SCRAMBLED	0	0.503824957486358	1	0	0	596
120.9541015625	0.2	FACES	1	0.437573687479016	1	0	0	604
122.35400390625	0.2	FACES	1	0.443177708999428	1	0	0	612
123.673828125	0.2	FACES	1	0.409208573073556	1	0	0	620
124.77392578125	0.2	FACES	1	0.547068528674572	1	0	0	628
126.02392578125	0.2	SCRAMBLED	0	0.446866535181471	1	0	0	636
127.37353515625	0.2	FACES	1	0.452856010513642	1	0	0	644
128.49365234375	0.2	SCRAMBLED	0	0.467642706953484	1	0	0	652
129.67333984375	0.2	FACES	1	0.441428225603886	1	0	0	660
131.04345703125	0.2	SCRAMBLED	0	0.444364254755783	1	0	0	668
132.29345703125	0.2	FACES	1	0.423118414910277	1	0	0	676
133.4931640625	0.2	FACES	1	0.438805811569182	1	0	0	684
134.59326171875	0.2	SCRAMBLED	0	0.508767036786594	1	0	0	692
135.76318359375	0.2	FACES	1	0.531618682649423	1	0	0	700
137.033203125	0.2	SCRAMBLED	0	0.463576576723426	1	0	0	708
138.462890625	0.2	FACES	1	0.472194201109232	1	0	0	716
139.90283203125	0.2	SCRAMBLED	0	0.439143574152695	1	0	0	724
141.1826171875	0.2	SCRAMBLED	0	0.439794650006661	1	0	0	732
142.32275390625	0.2	FACES	1	0.417199872743367	1	0	0	740
143.38232421875	0.2	FACES	1	0.471795768036827	1	0	0	748
144.65234375	0.2	SCRAMBLED	0	0.462589549340919	1	0	0	756
146.072265625	0.2	FACES	1	0.493328660799307	1	0	0	764
147.52197265625	0.2	FACES	1	0.643110820536094	1	0	0	772
148.921875	0.2	SCRAMBLED	0	NaN	0	0	1	780
150.0419921875	0.2	FACES	1	0.616864947489375	1	0	0	788
151.4716796875	0.2	FACES	1	0.412613968459482	1	0	0	796
152.66162109375	0.2	FACES	1	0.447611182447872	1	0	0	804
153.94189453125	0.2	FACES	1	0.396726147893787	1	0	0	812
155.29150390625	0.2	FACES	1	0.351185851519404	1	0	0	820
156.3115234375	0.2	SCRAMBLED	0	0.448095037154417	1	0	0	828
157.66162109375	0.2	SCRAMBLED	0	0.390002589814685	1	0	0	836
158.80126953125	0.2	FACES	1	0.526640684001904	1	0	0	844
160.201171875	0.2	SCRAMBLED	0	0.403645300393691	1	0	0	852
161.47119140625	0.2	SCRAMBLED	0	0.417344455650891	1	0	0	860
162.65087890625	0.2	SCRAMBLED	0	0.417203193017485	1	0	0	868
163.7509765625	0.2	FACES	1	0.487147213170829	1	0	0	876
165.0009765625	0.2	FACES	1	0.402669743052684	1	0	0	884
166.3408203125	0.2	SCRAMBLED	0	0.474891170422779	1	0	0	892
167.720703125	0.2	FACES	1	0.442630165365699	1	0	0	900
168.99072265625	0.2	FACES	1	0.357385107901791	1	0	0	908
170.26025390625	0.2	FACES	1	0.414050138577295	1	0	0	916
171.6103515625	0.2	FACES	1	0.38686009988669	1	0	0	924
172.8203125	0.2	SCRAMBLED	0	0.463625777170819	1	0	0	932
174.22998046875	0.2	FACES	1	0.369552710584685	1	0	0	940
175.2802734375	0.2	FACES	1	0.335633076949307	1	0	0	948
176.4599609375	0.2	FACES	1	0.323422914370894	1	0	0	956
177.6796875	0.2	SCRAMBLED	0	0.403327459462162	1	0	0	964
178.97998046875	0.2	FACES	1	0.303104638787772	1	0	0	972
180.0498046875	0.2	FACES	1	0.410927268458181	1	0	0	980
181.2197265625	0.2	SCRAMBLED	0	0.517905944438098	1	0	0	988
182.3994140625	0.2	FACES	1	0.442653407295438	1	0	0	996
183.599609375	0.2	SCRAMBLED	0	0.467588677016465	1	0	0	1004
184.83935546875	0.2	SCRAMBLED	0	0.437400731305388	1	0	0	1012
186.04931640625	0.2	SCRAMBLED	0	0.354176212458697	1	0	0	1020
187.369140625	0.2	FACES	1	0.363137636290048	1	0	0	1028
188.4189453125	0.2	SCRAMBLED	0	0.512943339799676	1	0	0	1036
189.8388671875	0.2	SCRAMBLED	0	0.35877539784633	1	0	0	1044
190.93896484375	0.2	FACES	1	0.446624456908467	1	0	0	1052
192.05859375	0.2	SCRAMBLED	0	0.403448498604121	1	0	0	1060
193.228515625	0.2	SCRAMBLED	0	0.457457308802987	1	0	0	1068
194.52880859375	0.2	FACES	1	0.417119582441956	1	0	0	1076
195.888671875	0.2	SCRAMBLED	0	0.388892410392145	1	0	0	1084
196.9482421875	0.2	FACES	1	0.451876831059053	1	0	0	1092
198.3583984375	0.2	SCRAMBLED	0	0.407678227868018	1	0	0	1100
199.59814453125	0.2	FACES	1	0.378417846422963	1	0	0	1108
200.8779296875	0.2	SCRAMBLED	0	0.41940302652074	1	0	0	1116
202.09814453125	0.2	FACES	1	0.327157922569313	1	0	0	1124
203.19775390625	0.2	SCRAMBLED	0	NaN	0	0	1	1132
204.31787109375	0.2	SCRAMBLED	0	0.46587964061473	1	0	0	1140
205.56787109375	0.2	SCRAMBLED	0	0.511673485303618	1	0	0	1148
206.74755859375	0.2	FACES	1	0.441613255505217	1	0	0	1156
208.11767578125	0.2	FACES	1	0.477366888640972	1	0	0	1164
209.3076171875	0.2	SCRAMBLED	0	0.407672794688551	1	0	0	1172
233.8857421875	0.2	FACES	1	0.471737210449646	1	0	0	1176
235.07568359375	0.2	FACES	1	0.351981208445068	1	0	0	1184
236.25537109375	0.2	FACES	1	0.388803668483888	1	0	0	1192
237.42529296875	0.2	SCRAMBLED	0	0.402475959694129	1	0	0	1200
238.75537109375	0.2	FACES	1	0.398439108259481	1	0	0	1208
240.0751953125	0.2	FACES	1	0.403063950318028	1	0	0	1216
241.365234375	0.2	SCRAMBLED	0	0.353130627489008	1	0	0	1224
242.375	0.2	SCRAMBLED	0	0.407920004297921	1	0	0	1232
243.544921875	0.2	SCRAMBLED	0	0.397584891899896	1	0	0	1240
244.81494140625	0.2	SCRAMBLED	0	0.418635439174977	1	0	0	1248
245.884765625	0.2	FACES	1	0.502443119152304	1	0	0	1256
247.19482421875	0.2	FACES	1	0.545446724972862	1	0	0	1264
248.70458984375	0.2	FACES	1	0.483191859406361	1	0	0	1270
249.8642578125	0.2	SCRAMBLED	0	0.56297295062177	1	0	0	1278
251.3642578125	0.2	FACES	1	0.448849645243172	1	0	0	1285
252.7744140625	0.2	SCRAMBLED	0	0.498680945056549	1	0	0	1293
254.0341796875	0.2	FACES	1	0.462511070098117	1	0	0	1301
255.25390625	0.2	SCRAMBLED	0	0.498372461272083	1	0	0	1309
256.5537109375	0.2	FACES	1	0.563177902178722	1	0	0	1317
258.09375	0.2	SCRAMBLED	0	0.508895622006094	1	0	0	1323
259.353515625	0.2	FACES	1	0.531831180283916	1	0	0	1331
260.54345703125	0.2	SCRAMBLED	0	0.678267709594365	1	0	0	1339
261.8935546875	0.2	SCRAMBLED	0	0.697381328820484	1	0	0	1347
263.29345703125	0.2	FACES	1	0.612346052403154	1	0	0	1355
264.5634765625	0.2	SCRAMBLED	0	0.657139588609425	1	0	0	1363
266.0830078125	0.2	FACES	1	0.653865495034552	1	0	0	1369
267.59326171875	0.2	SCRAMBLED	0	0.507684626943956	1	0	0	1375
268.783203125	0.2	SCRAMBLED	0	0.853271588282951	1	0	0	1383
270.35302734375	0.2	FACES	1	0.642350779267872	1	0	0	1389
271.90283203125	0.2	FACES	1	0.643119272146578	1	0	0	1395
273.47265625	0.2	FACES	1	0.57896098314086	1	0	0	1401
274.75244140625	0.2	FACES	1	0.701550689442229	1	0	0	1409
276.1923828125	0.2	FACES	1	0.827407245084032	1	0	0	1417
277.90234375	0.2	SCRAMBLED	0	0.654397040969343	1	0	0	1422
279.25244140625	0.2	SCRAMBLED	0	0.702157092502603	1	0	0	1430
280.662109375	0.2	FACES	1	0.722069992614706	1	0	0	1438
282.2421875	0.2	SCRAMBLED	0	0.71870353500708	1	0	0	1444
283.64208984375	0.2	SCRAMBLED	0	0.542619057538104	1	0	0	1452
285.0419921875	0.2	FACES	1	0.633453949889372	1	0	0	1460
286.6416015625	0.2	SCRAMBLED	0	0.568297163456009	1	0	0	1466
288.0517578125	0.2	SCRAMBLED	0	0.672967946058634	1	0	0	1474
289.38134765625	0.2	SCRAMBLED	0	0.757932893004181	1	0	0	1482
290.93115234375	0.2	SCRAMBLED	0	0.694633649847674	1	0	0	1488
292.5810546875	0.2	SCRAMBLED	0	0.678983983594662	1	0	0	1494
294.10107421875	0.2	SCRAMBLED	0	0.713046690922056	1	0	0	1500
295.55078125	0.2	SCRAMBLED	0	0.732137370065175	1	0	0	1508
297.19091796875	0.2	FACES	1	0.723918782434339	1	0	0	1514
298.82080078125	0.2	FACES	1	0.673693879041821	1	0	0	1520
300.32080078125	0.2	FACES	1	0.677454845761531	1	0	0	1527
301.890625	0.2	SCRAMBLED	0	0.763338301672775	1	0	0	1533
303.51025390625	0.2	SCRAMBLED	0	0.767977934054215	1	0	0	1539
305.16015625	0.2	FACES	1	0.607997698745748	1	0	0	1545
306.66015625	0.2	SCRAMBLED	0	0.773637494727154	1	0	0	1552
308.26025390625	0.2	SCRAMBLED	0	1.11416677080342	1	0	0	1558
310.15966796875	0.2	SCRAMBLED	0	0.833173356419138	1	0	0	1562
311.8798828125	0.2	SCRAMBLED	0	0.725072427281702	1	0	0	1567
313.349609375	0.2	SCRAMBLED	0	0.781859100785368	1	0	0	1575
314.83935546875	0.2	SCRAMBLED	0	0.467648743819154	1	0	0	1583
316.16943359375	0.2	SCRAMBLED	0	0.398486497644626	1	0	0	1591
317.3994140625	0.2	SCRAMBLED	0	0.414356207616947	1	0	0	1599
318.51904296875	0.2	FACES	1	0.672143008498097	1	0	0	1607
319.93896484375	0.2	SCRAMBLED	0	0.482677518535638	1	0	0	1615
321.1689453125	0.2	FACES	1	0.431891790409281	1	0	0	1623
322.2890625	0.2	SCRAMBLED	0	0.512711524192127	1	0	0	1631
323.5888671875	0.2	FACES	1	0.498858127040876	1	0	0	1639
325.03857421875	0.2	FACES	1	0.441340992907499	1	0	0	1647
326.3388671875	0.2	SCRAMBLED	0	0.48803946177577	1	0	0	1655
327.69873046875	0.2	SCRAMBLED	0	0.420059837404551	1	0	0	1663
328.8583984375	0.2	SCRAMBLED	0	0.52285919194037	1	0	0	1671
330.25830078125	0.2	SCRAMBLED	0	0.393683568076085	1	0	0	1679
331.6181640625	0.2	SCRAMBLED	0	0.398604820195033	1	0	0	1687
332.7783203125	0.2	FACES	1	0.461386402203061	1	0	0	1695
334.02783203125	0.2	SCRAMBLED	0	0.593134635968454	1	0	0	1703
335.44775390625	0.2	SCRAMBLED	0	0.544465432612924	1	0	0	1711
336.84765625	0.2	SCRAMBLED	0	0.427837432063825	1	0	0	1719
337.99755859375	0.2	SCRAMBLED	0	0.447671852936764	1	0	0	1727
339.1376953125	0.2	SCRAMBLED	0	0.572584242938319	1	0	0	1735
340.48779296875	0.2	FACES	1	0.498351634087157	1	0	0	1743
341.7373046875	0.2	FACES	1	0.491933541365142	1	0	0	1751
343.02734375	0.2	FACES	1	0.57911673425042	1	0	0	1759
344.4072265625	0.2	SCRAMBLED	0	0.568861006624502	1	0	0	1767
345.7373046875	0.2	SCRAMBLED	0	0.627656446860783	1	0	0	1775
347.1572265625	0.2	SCRAMBLED	0	0.42343082266234	1	0	0	1783
348.3271484375	0.2	FACES	1	0.662363891340647	1	0	0	1791
349.77685546875	0.2	SCRAMBLED	0	0.664166197300801	1	0	0	1799
351.126953125	0.2	FACES	1	0.606930079222366	1	0	0	1807
352.61669921875	0.2	FACES	1	0.648718162330624	1	0	0	1815
354.19677734375	0.2	SCRAMBLED	0	0.562621001405205	1	0	0	1821
355.6962890625	0.2	SCRAMBLED	0	0.533385974791599	1	0	0	1828
357.09619140625	0.2	SCRAMBLED	0	0.688154282943287	1	0	0	1836
358.71630859375	0.2	FACES	1	0.448913032323617	1	0	0	1842
360.10595703125	0.2	FACES	1	0.398880704913608	1	0	0	1850
361.18603515625	0.2	FACES	1	0.786623394418712	1	0	0	1858
362.6259765625	0.2	FACES	1	0.672290006150433	1	0	0	1866
364.15576171875	0.2	FACES	1	0.772056741698179	1	0	0	1872
365.87548828125	0.2	FACES	1	0.553132257442485	1	0	0	1877
367.29541015625	0.2	FACES	1	0.733849424897926	1	0	0	1885
368.70556640625	0.2	FACES	1	0.51744895378215	1	0	0	1893
370.10546875	0.2	FACES	1	0.558539477169688	1	0	0	1901
371.34521484375	0.2	SCRAMBLED	0	0.523115456846426	1	0	0	1909
372.71533203125	0.2	FACES	1	0.547037740667292	1	0	0	1917
374.06494140625	0.2	FACES	1	0.483582142711384	1	0	0	1925
375.23486328125	0.2	FACES	1	0.548009374044341	1	0	0	1933
376.48486328125	0.2	FACES	1	0.782421434734715	1	0	0	1941
378.11474609375	0.2	FACES	1	0.662427882107295	1	0	0	1947
379.6845703125	0.2	FACES	1	0.323415670132817	1	0	0	1953
380.66455078125	0.2	FACES	1	0.432178843322617	1	0	0	1963
382.03466796875	0.2	SCRAMBLED	0	0.483938619574474	1	0	0	1971
383.234375	0.2	FACES	1	0.481855901249219	1	0	0	1979
384.50439453125	0.2	SCRAMBLED	0	0.483687787844246	1	0	0	1987
385.904296875	0.2	FACES	1	0.409467252724426	1	0	0	1995
387.173828125	0.2	FACES	1	0.443378132906219	1	0	0	2003
388.5537109375	0.2	SCRAMBLED	0	0.393173754851887	1	0	0	2011
389.74365234375	0.2	FACES	1	0.409071536239935	1	0	0	2019
390.91357421875	0.2	FACES	1	0.449876515933283	1	0	0	2027
392.16357421875	0.2	SCRAMBLED	0	0.468657503912254	1	0	0	2035
393.37353515625	0.2	SCRAMBLED	0	0.481582129432354	1	0	0	2043
394.8134765625	0.2	SCRAMBLED	0	0.488391410988697	1	0	0	2051
396.21337890625	0.2	FACES	1	0.402222411375988	1	0	0	2059
397.29345703125	0.2	FACES	1	0.357965552440874	1	0	0	2067
398.51318359375	0.2	SCRAMBLED	0	0.82889080458699	1	0	0	2075
400.1630859375	0.2	FACES	1	0.408660123910522	1	0	0	2081
401.3330078125	0.2	FACES	1	0.411602189935365	1	0	0	2089
402.68310546875	0.2	SCRAMBLED	0	0.283379183321813	1	0	0	2097
403.8330078125	0.2	SCRAMBLED	0	0.38817674008169	1	0	0	2105
405.15283203125	0.2	FACES	1	0.379072544401424	1	0	0	2113
406.22265625	0.2	SCRAMBLED	0	0.541881956356519	1	0	0	2121
407.49267578125	0.2	FACES	1	0.437725816471357	1	0	0	2129
408.7421875	0.2	FACES	1	0.41364808338767	1	0	0	2137
409.84228515625	0.2	SCRAMBLED	0	0.512453750070563	1	0	0	2145
411.06201171875	0.2	FACES	1	0.61135993055359	1	0	0	2153
412.3623046875	0.2	FACES	1	0.556108129905624	1	0	0	2161
413.7919921875	0.2	FACES	1	0.538874994039361	1	0	0	2169
415.26171875	0.2	FACES	1	0.55779392437762	1	0	0	2177
416.681640625	0.2	FACES	1	0.413614276945736	1	0	0	2185
417.83154296875	0.2	SCRAMBLED	0	0.433270610308682	1	0	0	2193
419.1015625	0.2	SCRAMBLED	0	0.423327894117392	1	0	0	2201
420.21142578125	0.2	SCRAMBLED	0	0.372167578534572	1	0	0	2209
421.45166015625	0.2	SCRAMBLED	0	0.309047630260466	1	0	0	2217
422.53125	0.2	FACES	1	0.449342253403302	1	0	0	2225
423.68115234375	0.2	FACES	1	0.501639310612518	1	0	0	2233
425.0009765625	0.2	FACES	1	0.382580566485558	1	0	0	2241
426.291015625	0.2	FACES	1	0.303321664076066	1	0	0	2249
427.4208984375	0.2	FACES	1	0.377056835270196	1	0	0	2257
428.49072265625	0.2	SCRAMBLED	0	0.592967112970655	1	0	0	2265
429.99072265625	0.2	SCRAMBLED	0	0.338915923981403	1	0	0	2272
431.220703125	0.2	SCRAMBLED	0	0.413693359871104	1	0	0	2280
432.310546875	0.2	FACES	1	0.477599006091623	1	0	0	2288
433.6904296875	0.2	SCRAMBLED	0	0.449402923895832	1	0	0	2296
434.96044921875	0.2	SCRAMBLED	0	0.439084111032571	1	0	0	2304
452.4189453125	0.2	FACES	1	0.532714977278374	1	0	0	2308
453.9091796875	0.2	FACES	1	0.333884499083069	1	0	0	2316
455.10888671875	0.2	SCRAMBLED	0	0.418620648855722	1	0	0	2324
456.3388671875	0.2	SCRAMBLED	0	0.49844762023713	1	0	0	2332
457.728515625	0.2	FACES	1	0.418188409341383	1	0	0	2340
458.99853515625	0.2	FACES	1	0.343209342168848	1	0	0	2348
460.12841796875	0.2	SCRAMBLED	0	0.503919736260286	1	0	0	2356
461.36865234375	0.2	SCRAMBLED	0	0.31273343801513	1	0	0	2364
462.568359375	0.2	SCRAMBLED	0	0.384658757167927	1	0	0	2372
463.67822265625	0.2	FACES	1	0.44651066201186	1	0	0	2380
465.01806640625	0.2	FACES	1	0.368435890610272	1	0	0	2388
466.087890625	0.2	FACES	1	0.392297503938607	1	0	0	2396
467.23779296875	0.2	FACES	1	0.382117840807041	1	0	0	2404
468.56787109375	0.2	FACES	1	0.323933029438194	1	0	0	2412
469.5576171875	0.2	SCRAMBLED	0	0.447747917431116	1	0	0	2422
470.9375	0.2	FACES	1	0.358262566187477	1	0	0	2430
472.107421875	0.2	FACES	1	0.283438646438299	1	0	0	2438
473.177734375	0.2	FACES	1	0.348380218641978	1	0	0	2446
474.42724609375	0.2	FACES	1	0.373101179662626	1	0	0	2454
475.67724609375	0.2	SCRAMBLED	0	0.464957811371278	1	0	0	2462
476.87744140625	0.2	FACES	1	0.426632473863719	1	0	0	2470
478.04736328125	0.2	SCRAMBLED	0	0.722670056969946	1	0	0	2478
479.72705078125	0.2	FACES	1	0.413485088036396	1	0	0	2484
480.876953125	0.2	SCRAMBLED	0	0.432369608250156	1	0	0	2492
482.1767578125	0.2	FACES	1	0.448180458788556	1	0	0	2500
483.39697265625	0.2	FACES	1	0.402985471075226	1	0	0	2508
484.716796875	0.2	SCRAMBLED	0	0.45887385910828	1	0	0	2516
486.08642578125	0.2	SCRAMBLED	0	0.408689704549033	1	0	0	2524
487.29638671875	0.2	FACES	1	0.393578224786324	1	0	0	2532
488.41650390625	0.2	SCRAMBLED	0	0.423400336494524	1	0	0	2540
489.55615234375	0.2	SCRAMBLED	0	0.428185759159533	1	0	0	2548
490.88623046875	0.2	FACES	1	0.273907644419523	1	0	0	2556
491.8759765625	0.2	SCRAMBLED	0	NaN	0	0	1	2566
492.93603515625	0.2	FACES	1	0.667872530393652	1	0	0	2574
494.52587890625	0.2	SCRAMBLED	0	0.43960780904672	1	0	0	2580
495.7255859375	0.2	SCRAMBLED	0	0.48713212101211	1	0	0	2588
496.9755859375	0.2	SCRAMBLED	0	0.428332454968768	1	0	0	2596
498.15576171875	0.2	SCRAMBLED	0	0.427118743315077	1	0	0	2604
499.4453125	0.2	SCRAMBLED	0	0.398923566652229	1	0	0	2612
500.765625	0.2	SCRAMBLED	0	0.288862467543368	1	0	0	2620
NaN	0.2	FACES	1	NaN	0	1	1	NaN
NaN	0.2	FACES	1	0.517381642741384	1	1	0	NaN
504.4150390625	0.2	SCRAMBLED	0	0.453241464325401	1	0	0	2628
505.69482421875	0.2	SCRAMBLED	0	0.404140021455532	1	0	0	2636
507.03515625	0.2	FACES	1	0.53886292030802	1	0	0	2644
508.3349609375	0.2	FACES	1	0.392840519918536	1	0	0	2652
509.4345703125	0.2	SCRAMBLED	0	0.44769630223891	1	0	0	2660
510.8544921875	0.2	SCRAMBLED	0	0.418488139672263	1	0	0	2668
511.9248046875	0.2	SCRAMBLED	0	0.337375919789338	1	0	0	2676
513.00439453125	0.2	FACES	1	0.427167943766108	1	0	0	2684
514.2841796875	0.2	FACES	1	0.522907185015356	1	0	0	2692
515.57421875	0.2	SCRAMBLED	0	0.437615040002129	1	0	0	2700
516.654296875	0.2	FACES	1	0.451516732075106	1	0	0	2708
517.77392578125	0.2	FACES	1	0.431581495562568	1	0	0	2716
519.15380859375	0.2	SCRAMBLED	0	0.32840966646836	1	0	0	2724
520.173828125	0.2	FACES	1	0.387318297918682	1	0	0	2732
521.34375	0.2	FACES	1	0.418125927790243	1	0	0	2740
522.62353515625	0.2	SCRAMBLED	0	0.387938283925905	1	0	0	2748
523.74365234375	0.2	FACES	1	0.316833978373324	1	0	0	2756
524.8935546875	0.2	SCRAMBLED	0	0.394989040069049	1	0	0	2764
526.013671875	0.2	SCRAMBLED	0	0.487582471119822	1	0	0	2772
527.18359375	0.2	FACES	1	0.407428301667096	1	0	0	2780
528.51318359375	0.2	FACES	1	0.40819045583703	1	0	0	2788
529.60302734375	0.2	FACES	1	0.357142727782048	1	0	0	2796
530.76318359375	0.2	SCRAMBLED	0	0.388874903484975	1	0	0	2804
532.06298828125	0.2	SCRAMBLED	0	0.618692306437879	1	0	0	2812
533.4228515625	0.2	FACES	1	0.396512744729989	1	0	0	2820
534.65283203125	0.2	FACES	1	0.358418317293399	1	0	0	2828
535.6728515625	0.2	FACES	1	0.452092648971302	1	0	0	2836
536.9228515625	0.2	FACES	1	0.423654790341971	1	0	0	2844
538.29248046875	0.2	SCRAMBLED	0	0.33296508458443	1	0	0	2852
539.40234375	0.2	SCRAMBLED	0	0.493826400295802	1	0	0	2860
540.7421875	0.2	SCRAMBLED	0	0.483976349980367	1	0	0	2868
541.912109375	0.2	FACES	1	0.476412158488529	1	0	0	2876
543.31201171875	0.2	SCRAMBLED	0	NaN	0	0	1	2884
544.6123046875	0.2	FACES	1	0.393152927670599	1	0	0	2892
545.7421875	0.2	FACES	1	0.456988848101901	1	0	0	2900
546.89208984375	0.2	SCRAMBLED	0	0.472464048962138	1	0	0	2908
548.0517578125	0.2	SCRAMBLED	0	0.451669162910548	1	0	0	2916
549.28173828125	0.2	FACES	1	0.40760638917709	1	0	0	2924
550.6318359375	0.2	FACES	1	0.386365378824848	1	0	0	2932
551.71142578125	0.2	FACES	1	0.452174750327686	1	0	0	2940
552.931640625	0.2	SCRAMBLED	0	0.507068564897054	1	0	0	2948
554.1513671875	0.2	FACES	1	0.471912581368088	1	0	0	2956
555.35107421875	0.2	SCRAMBLED	0	0.502798388639349	1	0	0	2964
556.77099609375	0.2	FACES	1	0.393621690211148	1	0	0	2972
557.87109375	0.2	SCRAMBLED	0	0.597124098014319	1	0	0	2980
559.19091796875	0.2	SCRAMBLED	0	0.467079769321572	1	0	0	2988
560.4609375	0.2	FACES	1	0.383152559417795	1	0	0	2996
561.49072265625	0.2	FACES	1	0.881914398465597	1	0	0	3004
563.07080078125	0.2	SCRAMBLED	0	0.451730738932383	1	0	0	3010
564.36083984375	0.2	FACES	1	0.328479090414476	1	0	0	3018
565.49072265625	0.2	SCRAMBLED	0	0.378394302646484	1	0	0	3026
566.560546875	0.2	SCRAMBLED	0	0.672325925494079	1	0	0	3034
568.18017578125	0.2	FACES	1	0.403133374264144	1	0	0	3040
569.35009765625	0.2	FACES	1	0.690904678511288	1	0	0	3048
570.7802734375	0.2	SCRAMBLED	0	0.362750371419679	1	0	0	3056
571.97998046875	0.2	SCRAMBLED	0	0.483630739476212	1	0	0	3064
573.2998046875	0.2	FACES	1	0.457456705116783	1	0	0	3072
574.5498046875	0.2	FACES	1	0.542800465322216	1	0	0	3080
575.98974609375	0.2	SCRAMBLED	0	0.473030005028704	1	0	0	3088
577.41943359375	0.2	FACES	1	0.332866985532746	1	0	0	3096
578.6396484375	0.2	FACES	1	0.538801646129286	1	0	0	3104
580.0693359375	0.2	SCRAMBLED	0	0.489872253907379	1	0	0	3112
581.4091796875	0.2	FACES	1	0.517272073644563	1	0	0	3120
582.67919921875	0.2	SCRAMBLED	0	0.397064212316764	1	0	0	3128
583.9091796875	0.2	SCRAMBLED	0	0.555086088712414	1	0	0	3136
585.208984375	0.2	SCRAMBLED	0	0.382924365934741	1	0	0	3144
586.43896484375	0.2	FACES	1	0.393626821547514	1	0	0	3152
587.62890625	0.2	SCRAMBLED	0	0.534488608136598	1	0	0	3160
588.85888671875	0.2	FACES	1	0.422430212332984	1	0	0	3168
590.1484375	0.2	SCRAMBLED	0	0.378335443216201	1	0	0	3176
591.19873046875	0.2	SCRAMBLED	0	0.658124201247119	1	0	0	3184
592.5283203125	0.2	SCRAMBLED	0	0.550895900905743	1	0	0	3192
593.96826171875	0.2	SCRAMBLED	0	0.374476075605344	1	0	0	3200
595.01806640625	0.2	SCRAMBLED	0	0.46762459636011	1	0	0	3208
596.34814453125	0.2	FACES	1	0.468420255128876	1	0	0	3216
597.587890625	0.2	FACES	1	0.512383118752041	1	0	0	3224
598.84814453125	0.2	FACES	1	0.452130077534093	1	0	0	3232
600.16796875	0.2	FACES	1	0.54291607128107	1	0	0	3240
601.48779296875	0.2	SCRAMBLED	0	0.603862748259417	1	0	0	3248
602.837890625	0.2	SCRAMBLED	0	0.522641261122772	1	0	0	3256
604.23779296875	0.2	FACES	1	0.498156945199298	1	0	0	3264
605.67724609375	0.2	FACES	1	0.586982165292284	1	0	0	3272
606.92724609375	0.2	SCRAMBLED	0	0.547172664595564	1	0	0	3280
608.17724609375	0.2	FACES	1	0.436964567830728	1	0	0	3288
609.52734375	0.2	SCRAMBLED	0	0.478875501135917	1	0	0	3296
610.697265625	0.2	FACES	1	0.407614840787573	1	0	0	3304
611.9169921875	0.2	SCRAMBLED	0	0.458436488261214	1	0	0	3312
613.14697265625	0.2	SCRAMBLED	0	0.434359962549934	1	0	0	3320
614.296875	0.2	SCRAMBLED	0	1.13775068835457	1	0	0	3328
616.0966796875	0.2	SCRAMBLED	0	0.586631725291227	1	0	0	3332
617.61669921875	0.2	SCRAMBLED	0	0.333843146556319	1	0	0	3338
618.7666015625	0.2	FACES	1	0.483641002141667	1	0	0	3346
620.00634765625	0.2	FACES	1	0.482382014004543	1	0	0	3354
621.3564453125	0.2	SCRAMBLED	0	0.518094898303389	1	0	0	3362
622.6162109375	0.2	SCRAMBLED	0	0.42812086286358	1	0	0	3370
624.005859375	0.2	FACES	1	0.433875202310446	1	0	0	3378
625.35595703125	0.2	FACES	1	0.351674837562314	1	0	0	3386
626.48583984375	0.2	FACES	1	0.448500110778696	1	0	0	3394
627.845703125	0.2	SCRAMBLED	0	0.468441082313802	1	0	0	3402
629.07568359375	0.2	SCRAMBLED	0	0.487178906711051	1	0	0	3410
630.37548828125	0.2	FACES	1	0.383151955735229	1	0	0	3418
631.62548828125	0.2	FACES	1	0.378898984537955	1	0	0	3426
632.92529296875	0.2	SCRAMBLED	0	0.458847598747525	1	0	0	3434
634.3154296875	0.2	SCRAMBLED	0	0.463593178101291	1	0	0	3442
635.54541015625	0.2	SCRAMBLED	0	0.387466502943425	1	0	0	3450
636.6953125	0.2	FACES	1	0.472377721798694	1	0	0	3458
638.044921875	0.2	FACES	1	0.437117904191837	1	0	0	3466
639.1650390625	0.2	SCRAMBLED	0	0.612924384044163	1	0	0	3474
659.63330078125	0.2	SCRAMBLED	0	0.487025872193044	1	0	0	3478
660.83349609375	0.2	SCRAMBLED	0	0.368161816950305	1	0	0	3486
662.05322265625	0.2	FACES	1	0.414069456543075	1	0	0	3494
663.30322265625	0.2	SCRAMBLED	0	0.293917134371441	1	0	0	3502
664.57275390625	0.2	SCRAMBLED	0	0.358728913986852	1	0	0	3510
665.77294921875	0.2	FACES	1	0.333461314865417	1	0	0	3518
667.07275390625	0.2	SCRAMBLED	0	0.259400454815477	1	0	0	3526
668.24267578125	0.2	FACES	1	0.438152019120025	1	0	0	3534
669.3427734375	0.2	SCRAMBLED	0	0.317109259402059	1	0	0	3542
670.3427734375	0.2	SCRAMBLED	0	0.422821703014051	1	0	0	3551
671.6123046875	0.2	FACES	1	0.388806988758006	1	0	0	3559
672.79248046875	0.2	FACES	1	0.43361863555765	1	0	0	3567
674.1123046875	0.2	FACES	1	0.508460364060738	1	0	0	3575
675.48193359375	0.2	FACES	1	0.603327580203768	1	0	0	3583
676.89208984375	0.2	SCRAMBLED	0	0.498141249354376	1	0	0	3591
678.35205078125	0.2	SCRAMBLED	0	0.528887605047203	1	0	0	3599
679.56201171875	0.2	FACES	1	0.426719706560107	1	0	0	3607
680.86181640625	0.2	FACES	1	0.428651503272704	1	0	0	3615
682.2314453125	0.2	SCRAMBLED	0	NaN	0	0	1	3623
683.32177734375	0.2	SCRAMBLED	0	0.657354802839109	1	0	0	3631
684.87158203125	0.2	SCRAMBLED	0	0.392123944078776	1	0	0	3637
685.9912109375	0.2	FACES	1	0.5270487760572	1	0	0	3645
687.39111328125	0.2	SCRAMBLED	0	0.548895585783612	1	0	0	3653
688.8212890625	0.2	SCRAMBLED	0	0.50334381936409	1	0	0	3661
690.1708984375	0.2	FACES	1	0.453373067975917	1	0	0	3669
691.44091796875	0.2	SCRAMBLED	0	0.429228023847827	1	0	0	3677
692.7607421875	0.2	SCRAMBLED	0	0.583768742199027	1	0	0	3685
694.2109375	0.2	SCRAMBLED	0	0.508881435373041	1	0	0	3693
695.66064453125	0.2	FACES	1	0.413705433598807	1	0	0	3701
696.79052734375	0.2	SCRAMBLED	0	0.54759796171129	1	0	0	3709
698.150390625	0.2	SCRAMBLED	0	0.468390070804162	1	0	0	3717
699.30029296875	0.2	FACES	1	0.547210696840921	1	0	0	3725
700.7802734375	0.2	SCRAMBLED	0	0.484986619288975	1	0	0	3733
702.14990234375	0.2	FACES	1	0.457906451538292	1	0	0	3741
703.27001953125	0.2	SCRAMBLED	0	0.567710078365053	1	0	0	3749
704.69970703125	0.2	FACES	1	0.463617023717234	1	0	0	3757
705.81982421875	0.2	SCRAMBLED	0	0.557415111114096	1	0	0	3765
707.18994140625	0.2	FACES	1	0.50306159594038	1	0	0	3773
708.349609375	0.2	SCRAMBLED	0	0.618081375730981	1	0	0	3781
709.8193359375	0.2	FACES	1	0.473862186827319	1	0	0	3789
711.08935546875	0.2	SCRAMBLED	0	0.363709327379183	1	0	0	3797
712.38916015625	0.2	SCRAMBLED	0	0.414576251336257	1	0	0	3805
713.75927734375	0.2	FACES	1	0.333138342604798	1	0	0	3813
714.88916015625	0.2	SCRAMBLED	0	0.419102390660555	1	0	0	3821
716.1591796875	0.2	SCRAMBLED	0	0.434144446477148	1	0	0	3829
717.23876953125	0.2	SCRAMBLED	0	0.417898337989755	1	0	0	3837
718.4287109375	0.2	SCRAMBLED	0	0.438822412947047	1	0	0	3845
719.60888671875	0.2	SCRAMBLED	0	0.512610104866326	1	0	0	3853
721.048828125	0.2	FACES	1	0.557425675629929	1	0	0	3861
722.318359375	0.2	SCRAMBLED	0	0.568071384717769	1	0	0	3869
723.54833984375	0.2	FACES	1	0.57210551956814	1	0	0	3877
724.9482421875	0.2	FACES	1	0.847612027606374	1	0	0	3885
726.66845703125	0.2	SCRAMBLED	0	0.597650512620021	1	0	0	3890
728.16796875	0.2	FACES	1	0.432645794811833	1	0	0	3898
729.39794921875	0.2	SCRAMBLED	0	0.508106905628665	1	0	0	3906
730.7177734375	0.2	SCRAMBLED	0	0.479228054035048	1	0	0	3914
732.15771484375	0.2	FACES	1	0.484070525068091	1	0	0	3922
733.3076171875	0.2	SCRAMBLED	0	0.517910472088261	1	0	0	3930
734.53759765625	0.2	FACES	1	0.471547049211949	1	0	0	3938
735.83740234375	0.2	FACES	1	0.568246453796746	1	0	0	3946
737.33740234375	0.2	SCRAMBLED	0	0.492352197932632	1	0	0	3953
738.74755859375	0.2	FACES	1	0.433120292374952	1	0	0	3961
740.107421875	0.2	FACES	1	0.519157386497682	1	0	0	3969
741.3671875	0.2	FACES	1	0.456709341262467	1	0	0	3977
742.52685546875	0.2	FACES	1	0.482659106095525	1	0	0	3985
743.966796875	0.2	SCRAMBLED	0	NaN	0	0	1	3993
745.14697265625	0.2	SCRAMBLED	0	0.493140914306423	1	0	0	4001
746.3369140625	0.2	SCRAMBLED	0	0.431155594757001	1	0	0	4009
747.4365234375	0.2	SCRAMBLED	0	0.517998006624111	1	0	0	4017
748.896484375	0.2	FACES	1	0.403885869451187	1	0	0	4025
749.96630859375	0.2	SCRAMBLED	0	0.637664059344388	1	0	0	4033
751.486328125	0.2	FACES	1	0.538518819019373	1	0	0	4039
752.9560546875	0.2	SCRAMBLED	0	0.494405939309218	1	0	0	4047
754.1259765625	0.2	SCRAMBLED	0	0.488160500914091	1	0	0	4055
755.5361328125	0.2	FACES	1	0.588967388255696	1	0	0	4063
757.05615234375	0.2	FACES	1	0.557874214679032	1	0	0	4069
NaN	0.2	FACES	1	0.476644879621745	1	1	0	NaN
NaN	0.2	SCRAMBLED	0	0.432644587435789	1	1	0	NaN
760.85546875	0.2	SCRAMBLED	0	0.516974456215394	1	0	0	4077
762.275390625	0.2	SCRAMBLED	0	0.509172110410873	1	0	0	4085
763.6455078125	0.2	FACES	1	0.413948115561652	1	0	0	4093
764.96533203125	0.2	FACES	1	0.612822964714724	1	0	0	4101
766.2451171875	0.2	FACES	1	0.841525962445303	1	0	0	4109
768.044921875	0.2	FACES	1	0.703386500001216	1	0	0	4114
769.60498046875	0.2	FACES	1	0.583166866788815	1	0	0	4120
770.96484375	0.2	SCRAMBLED	0	0.523971786107722	1	0	0	4128
772.2548828125	0.2	FACES	1	0.501764575554262	1	0	0	4136
773.48486328125	0.2	SCRAMBLED	0	0.542057930961164	1	0	0	4144
774.9345703125	0.2	FACES	1	0.46255664842829	1	0	0	4152
776.28466796875	0.2	FACES	1	0.498369744680531	1	0	0	4160
777.59423828125	0.2	SCRAMBLED	0	0.48901139699592	1	0	0	4168
778.84423828125	0.2	FACES	1	0.472990463564201	1	0	0	4176
780.07421875	0.2	SCRAMBLED	0	0.54784939712772	1	0	0	4184
781.4140625	0.2	SCRAMBLED	0	0.503671922964713	1	0	0	4192
782.84375	0.2	SCRAMBLED	0	NaN	0	0	1	4200
783.97412109375	0.2	FACES	1	0.817239957526908	1	0	0	4208
785.513671875	0.2	SCRAMBLED	0	0.48768509781803	1	0	0	4214
786.84375	0.2	FACES	1	0.512959035648237	1	0	0	4222
788.03369140625	0.2	SCRAMBLED	0	0.517824446767918	1	0	0	4230
789.45361328125	0.2	FACES	1	0.664282105102757	1	0	0	4238
790.853515625	0.2	SCRAMBLED	0	0.461370706354501	1	0	0	4246
792.0634765625	0.2	FACES	1	0.532329825309716	1	0	0	4254
793.27294921875	0.2	FACES	1	0.571579708648642	1	0	0	4262
794.77294921875	0.2	FACES	1	0.507937269729155	1	0	0	4269
796.10302734375	0.2	FACES	1	0.628891891221429	1	0	0	4277
797.5029296875	0.2	FACES	1	0.438956129502913	1	0	0	4285
798.70263671875	0.2	SCRAMBLED	0	0.557203820855648	1	0	0	4293
800.12255859375	0.2	FACES	1	0.453207356040366	1	0	0	4301
801.3427734375	0.2	FACES	1	0.531643433791032	1	0	0	4309
802.62255859375	0.2	FACES	1	0.52092316942435	1	0	0	4317
804.04248046875	0.2	SCRAMBLED	0	0.423918903175945	1	0	0	4325
805.2421875	0.2	SCRAMBLED	0	0.523629194034584	1	0	0	4333
806.58203125	0.2	SCRAMBLED	0	0.489467783969303	1	0	0	4341
807.8818359375	0.2	FACES	1	0.503319671908685	1	0	0	4349
809.10205078125	0.2	SCRAMBLED	0	0.647133485341328	1	0	0	4357
810.60205078125	0.2	SCRAMBLED	0	0.508911619694118	1	0	0	4364
811.90185546875	0.2	SCRAMBLED	0	0.544543006322783	1	0	0	4372
813.1015625	0.2	FACES	1	0.501582262244483	1	0	0	4380
814.5517578125	0.2	FACES	1	0.523377154935588	1	0	0	4388
815.9716796875	0.2	FACES	1	0.498185620308504	1	0	0	4396
817.29150390625	0.2	FACES	1	0.459603112365585	1	0	0	4404
818.64111328125	0.2	FACES	1	0.437877643616957	1	0	0	4412
819.9013671875	0.2	FACES	1	0.388709191549424	1	0	0	4420
821.14111328125	0.2	FACES	1	0.424101518328825	1	0	0	4428
822.4208984375	0.2	SCRAMBLED	0	0.448408652275248	1	0	0	4436
823.81103515625	0.2	SCRAMBLED	0	0.464251498196973	1	0	0	4444
825.04052734375	0.2	FACES	1	0.452535754840937	1	0	0	4452
826.380859375	0.2	SCRAMBLED	0	NaN	0	0	1	4460
827.810546875	0.2	FACES	1	0.408910050111444	1	0	0	4468
829.0302734375	0.2	FACES	1	0.372478778914228	1	0	0	4476
830.33056640625	0.2	FACES	1	0.427334561230964	1	0	0	4484
831.46044921875	0.2	FACES	1	0.34219695995489	1	0	0	4492
832.52001953125	0.2	FACES	1	0.36314940817465	1	0	0	4500
833.72998046875	0.2	SCRAMBLED	0	0.438926548864401	1	0	0	4508
834.919921875	0.2	FACES	1	0.406763341015903	1	0	0	4516
836.08984375	0.2	FACES	1	0.411669500976132	1	0	0	4524
837.36962890625	0.2	SCRAMBLED	0	0.413610352981777	1	0	0	4532
838.669921875	0.2	FACES	1	0.41735834044448	1	0	0	4540
839.86962890625	0.2	SCRAMBLED	0	0.354171986651636	1	0	0	4548
840.91943359375	0.2	SCRAMBLED	0	0.372974103662273	1	0	0	4556
842.20947265625	0.2	SCRAMBLED	0	0.538930533195526	1	0	0	4564
843.41943359375	0.2	FACES	1	0.446668526019494	1	0	0	4572
844.67919921875	0.2	SCRAMBLED	0	0.588604572683835	1	0	0	4580
846.12890625	0.2	SCRAMBLED	0	0.36840842287711	1	0	0	4588
847.18896484375	0.2	SCRAMBLED	0	0.412051634510135	1	0	0	4596
848.3291015625	0.2	FACES	1	0.527275158481643	1	0	0	4604
849.798828125	0.2	SCRAMBLED	0	0.393965489656694	1	0	0	4612
850.89892578125	0.2	FACES	1	0.352769321136293	1	0	0	4620
851.96875	0.2	SCRAMBLED	0	0.457631472349021	1	0	0	4628
853.32861328125	0.2	FACES	1	0.371406329893944	1	0	0	4636
