onset	duration	trial_type	trial_type_id	response_time	bad_epoch	outliers	direction	name_direction	event_num	response_accuracy
41.3076171875	0.2	RANDOM	0	0.739899268875888	0	0	0	NONE	1.0	1
42.8076171875	0.2	COHERENT	1	0.494855383887625	0	0	0	RIGHT	5.0	1
44.0078125	0.2	COHERENT	1	0.51866990967028	0	0	180	LEFT	9.0	1
45.15771484375	0.2	RANDOM	0	0.52357606962687	0	0	0	NONE	13.0	1
46.50732421875	0.2	COHERENT	1	0.564378634571767	0	0	180	LEFT	17.0	1
47.857421875	0.2	RANDOM	0	0.499165705296036	0	0	0	NONE	21.0	1
49.05712890625	0.2	COHERENT	1	0.567973587509186	0	0	0	RIGHT	25.0	1
50.4072265625	0.2	RANDOM	0	0.474885133557109	0	0	0	NONE	29.0	1
51.60693359375	0.2	RANDOM	0	0.56451144559469	0	0	0	NONE	33.0	1
52.77685546875	0.2	RANDOM	0	0.608618590285914	0	0	0	NONE	37.0	1
54.22705078125	0.2	RANDOM	0	0.739380702198105	0	0	0	NONE	41.0	1
55.88671875	0.2	RANDOM	0	0.759149321245786	0	0	0	NONE	44.0	1
57.23681640625	0.2	RANDOM	0	0.647938803096622	0	0	0	NONE	48.0	1
58.56640625	0.2	COHERENT	1	0.532855938068678	0	0	0	RIGHT	52.0	1
59.81640625	0.2	COHERENT	1	n/a	0	1	180	LEFT	56.0	0
61.236328125	0.2	COHERENT	1	n/a	0	1	180	LEFT	60.0	0
63.08642578125	0.2	COHERENT	1	n/a	0	1	180	LEFT	62.0	0
64.5859375	0.2	COHERENT	1	n/a	0	1	180	LEFT	66.0	0
65.90576171875	0.2	RANDOM	0	0.692633334721904	0	0	0	NONE	70.0	1
67.40576171875	0.2	COHERENT	1	0.769630525766843	0	0	0	RIGHT	74.0	1
68.8955078125	0.2	COHERENT	1	0.734410551474866	0	0	180	LEFT	78.0	1
70.35546875	0.2	COHERENT	1	0.914083945019229	0	0	180	LEFT	82.0	1
72.025390625	0.2	RANDOM	0	0.758970931892691	0	0	0	NONE	85.0	1
73.42529296875	0.2	RANDOM	0	0.777882919839612	0	0	0	NONE	89.0	1
74.8154296875	0.2	RANDOM	0	0.768680625107663	0	0	0	NONE	93.0	1
76.2353515625	0.2	RANDOM	0	0.778565387394337	0	0	0	NONE	97.0	1
77.78515625	0.2	COHERENT	1	0.714418266587018	0	0	0	RIGHT	100.0	1
79.19482421875	0.2	RANDOM	0	0.758123657928081	0	0	0	NONE	104.0	1
80.6650390625	0.2	COHERENT	1	0.837940366644034	0	0	0	RIGHT	108.0	1
82.28466796875	0.2	RANDOM	0	0.814791707038239	0	0	0	NONE	111.0	1
83.82470703125	0.2	COHERENT	1	0.834643936665088	0	0	180	LEFT	114.0	1
85.5244140625	0.2	RANDOM	0	0.734329959330353	0	0	0	NONE	117.0	1
86.92431640625	0.2	RANDOM	0	0.868149441379501	0	0	0	NONE	121.0	1
88.59423828125	0.2	RANDOM	0	0.729920029651112	0	0	0	NONE	124.0	1
90.05419921875	0.2	COHERENT	1	0.740850980597315	0	0	180	LEFT	128.0	1
91.6640625	0.2	COHERENT	1	0.68948692082995	0	0	0	RIGHT	131.0	1
93.24365234375	0.2	COHERENT	1	0.709385634312639	0	0	0	RIGHT	134.0	1
94.82373046875	0.2	RANDOM	0	0.73407218520515	0	0	0	NONE	137.0	1
96.19384765625	0.2	RANDOM	0	0.983909944465267	0	0	0	NONE	141.0	1
97.93359375	0.2	COHERENT	1	0.828673779302335	0	0	0	RIGHT	144.0	1
99.533203125	0.2	COHERENT	1	0.804422788198281	0	0	180	LEFT	147.0	1
101.103515625	0.2	RANDOM	0	0.68437037613694	0	0	0	NONE	150.0	1
102.5830078125	0.2	RANDOM	0	0.749052363160445	0	0	0	NONE	154.0	1
103.98291015625	0.2	RANDOM	0	0.857875905003311	0	0	0	NONE	158.0	1
105.47314453125	0.2	COHERENT	1	0.753835069233901	0	0	180	LEFT	162.0	1
107.10302734375	0.2	COHERENT	1	0.783453134914453	0	0	180	LEFT	165.0	1
108.6728515625	0.2	RANDOM	0	0.584311758182594	0	0	0	NONE	168.0	1
110.15234375	0.2	RANDOM	0	0.689032948605018	0	0	0	NONE	172.0	1
111.5625	0.2	COHERENT	1	0.634957129204849	0	0	180	LEFT	176.0	1
113.072265625	0.2	RANDOM	0	0.594877780655224	0	0	0	NONE	179.0	1
114.54248046875	0.2	COHERENT	1	0.653547352263558	0	0	0	RIGHT	183.0	1
116.08203125	0.2	RANDOM	0	0.744397940463386	0	0	0	NONE	186.0	1
117.48193359375	0.2	COHERENT	1	0.648309768432227	0	0	0	RIGHT	190.0	1
118.9521484375	0.2	COHERENT	1	0.803976965737093	0	0	0	RIGHT	194.0	1
120.40185546875	0.2	COHERENT	1	0.88785557887968	0	0	180	LEFT	198.0	1
122.16162109375	0.2	COHERENT	1	0.784647528598725	0	0	0	RIGHT	201.0	1
123.5517578125	0.2	RANDOM	0	0.658427855545597	0	0	0	NONE	205.0	1
125.021484375	0.2	COHERENT	1	0.71921214086251	0	0	0	RIGHT	209.0	1
126.6015625	0.2	RANDOM	0	0.693989214538306	0	0	0	NONE	212.0	1
127.97119140625	0.2	COHERENT	1	0.782835563652043	0	0	180	LEFT	216.0	1
129.4912109375	0.2	COHERENT	1	0.76468331513388	0	0	0	RIGHT	219.0	1
n/a	0.2	RANDOM	0	0.644928822344809	1	0	0	NONE	n/a	1
n/a	0.2	RANDOM	0	1.00319772724106	1	0	0	NONE	n/a	1
134.32080078125	0.2	RANDOM	0	0.823745282941672	0	0	0	NONE	222.0	1
135.83056640625	0.2	COHERENT	1	0.633903394467779	0	0	0	RIGHT	225.0	1
137.2607421875	0.2	RANDOM	0	0.699494231474091	0	0	0	NONE	229.0	1
138.71044921875	0.2	RANDOM	0	0.73848151119455	0	0	0	NONE	233.0	1
140.2802734375	0.2	RANDOM	0	0.644367393928405	0	0	0	NONE	236.0	1
141.66015625	0.2	RANDOM	0	0.708964563000336	0	0	0	NONE	240.0	1
143.10009765625	0.2	RANDOM	0	0.74492435506545	0	0	0	NONE	244.0	1
144.669921875	0.2	RANDOM	0	0.69468315213453	0	0	0	NONE	247.0	1
146.0498046875	0.2	RANDOM	0	0.643666513933567	0	0	0	NONE	251.0	1
147.3896484375	0.2	RANDOM	0	0.647420840101404	0	0	0	NONE	255.0	1
148.939453125	0.2	COHERENT	1	0.689182964692009	0	0	180	LEFT	258.0	1
150.23974609375	0.2	RANDOM	0	0.52808470204036	0	0	0	NONE	262.0	1
151.359375	0.2	RANDOM	0	0.688863614548609	0	0	0	NONE	266.0	1
152.76953125	0.2	RANDOM	0	0.713420071002474	0	0	0	NONE	270.0	1
154.189453125	0.2	RANDOM	0	0.908419253009924	0	0	0	NONE	274.0	1
155.93896484375	0.2	RANDOM	0	0.609360520957125	0	0	0	NONE	277.0	1
157.30908203125	0.2	RANDOM	0	0.579125789547106	0	0	0	NONE	281.0	1
158.7490234375	0.2	COHERENT	1	0.709925028178986	0	0	0	RIGHT	285.0	1
160.3486328125	0.2	COHERENT	1	0.588805902123568	0	0	0	RIGHT	288.0	1
161.6787109375	0.2	RANDOM	0	0.569609879690688	0	0	0	NONE	292.0	1
163.0185546875	0.2	COHERENT	1	0.799341861009452	0	0	180	LEFT	296.0	1
164.41845703125	0.2	RANDOM	0	0.528013467039273	0	0	0	NONE	300.0	1
165.568359375	0.2	COHERENT	1	0.962968362604443	0	0	180	LEFT	304.0	1
167.3984375	0.2	RANDOM	0	0.574474687124166	0	0	0	NONE	307.0	1
168.63818359375	0.2	COHERENT	1	0.61864008755947	0	0	180	LEFT	311.0	1
170.1181640625	0.2	COHERENT	1	0.694555472447973	0	0	180	LEFT	315.0	1
171.4677734375	0.2	COHERENT	1	0.908241467343032	0	0	180	LEFT	319.0	1
173.0576171875	0.2	COHERENT	1	0.653123262512963	0	0	0	RIGHT	322.0	1
174.5078125	0.2	RANDOM	0	0.609932513889362	0	0	0	NONE	326.0	1
175.78759765625	0.2	COHERENT	1	0.642550901335198	0	0	0	RIGHT	330.0	1
177.2373046875	0.2	COHERENT	1	0.579617794021033	0	0	180	LEFT	334.0	1
178.49755859375	0.2	RANDOM	0	0.573432724275335	0	0	0	NONE	338.0	1
179.947265625	0.2	COHERENT	1	n/a	0	1	0	RIGHT	342.0	0
181.5771484375	0.2	COHERENT	1	0.515102122619282	0	0	180	LEFT	345.0	1
182.76708984375	0.2	RANDOM	0	0.613527466826781	0	0	0	NONE	349.0	1
184.046875	0.2	RANDOM	0	0.722626289702021	0	0	0	NONE	353.0	1
185.376953125	0.2	RANDOM	0	0.648449521850125	0	0	0	NONE	357.0	1
186.796875	0.2	COHERENT	1	0.684378827747423	0	0	0	RIGHT	361.0	1
188.31640625	0.2	RANDOM	0	0.604916181153385	0	0	0	NONE	364.0	1
189.58642578125	0.2	COHERENT	1	0.633921806904254	0	0	180	LEFT	368.0	1
191.00634765625	0.2	RANDOM	0	0.544886202082125	0	0	0	NONE	372.0	1
192.31640625	0.2	RANDOM	0	0.714386874889897	0	0	0	NONE	376.0	1
193.7060546875	0.2	COHERENT	1	0.663420342665631	0	0	180	LEFT	380.0	1
195.255859375	0.2	COHERENT	1	0.624207887889497	0	0	180	LEFT	383.0	1
196.67578125	0.2	RANDOM	0	0.509106912271818	0	0	0	NONE	387.0	1
197.85595703125	0.2	COHERENT	1	0.682850293604133	0	0	0	RIGHT	391.0	1
199.3759765625	0.2	COHERENT	1	0.673682107153581	0	0	0	RIGHT	394.0	1
200.8955078125	0.2	COHERENT	1	0.669450264987972	0	0	180	LEFT	397.0	1
202.16552734375	0.2	RANDOM	0	0.648353837543254	0	0	0	NONE	401.0	1
203.59521484375	0.2	RANDOM	0	0.624169855640503	0	0	0	NONE	405.0	1
205.01513671875	0.2	COHERENT	1	0.898948317797476	0	0	0	RIGHT	409.0	1
206.615234375	0.2	COHERENT	1	0.647834969022369	0	0	0	RIGHT	412.0	1
208.06494140625	0.2	RANDOM	0	0.569607464942237	0	0	0	NONE	416.0	1
209.28515625	0.2	RANDOM	0	0.648397604814818	0	0	0	NONE	420.0	1
210.61474609375	0.2	RANDOM	0	0.713370266872516	0	0	0	NONE	424.0	1
212.15478515625	0.2	RANDOM	0	0.544088732251112	0	0	0	NONE	427.0	1
213.53466796875	0.2	RANDOM	0	0.64991285785436	0	0	0	NONE	431.0	1
n/a	0.2	COHERENT	1	0.544653179105808	1	0	0	RIGHT	n/a	1
n/a	0.2	RANDOM	0	0.589205542564741	1	0	0	NONE	n/a	1
n/a	0.2	RANDOM	0	0.554347780151147	1	0	0	NONE	n/a	1
n/a	0.2	COHERENT	1	0.673967349015584	1	0	0	RIGHT	n/a	1
220.59423828125	0.2	COHERENT	1	0.648009132568404	0	0	180	LEFT	435.0	1
221.94384765625	0.2	COHERENT	1	0.557882968132617	0	0	180	LEFT	439.0	1
223.26416015625	0.2	COHERENT	1	0.604590190454473	0	0	0	RIGHT	443.0	1
224.74365234375	0.2	COHERENT	1	0.604467038418079	0	0	180	LEFT	447.0	1
226.09375	0.2	COHERENT	1	0.559331513824873	0	0	180	LEFT	451.0	1
227.4833984375	0.2	COHERENT	1	0.624042175950308	0	0	0	RIGHT	455.0	1
228.9833984375	0.2	COHERENT	1	0.644881131116563	0	0	180	LEFT	459.0	1
230.283203125	0.2	COHERENT	1	0.588791111804312	0	0	0	RIGHT	463.0	1
231.6533203125	0.2	COHERENT	1	0.714616879435198	0	0	180	LEFT	467.0	1
233.22314453125	0.2	RANDOM	0	0.539404427076079	0	0	0	NONE	470.0	1
234.5029296875	0.2	COHERENT	1	0.749191512895777	0	0	0	RIGHT	474.0	1
235.97314453125	0.2	RANDOM	0	0.614999556291878	0	0	0	NONE	478.0	1
237.373046875	0.2	RANDOM	0	0.894836911080347	0	0	0	NONE	482.0	1
239.1025390625	0.2	RANDOM	0	0.689596791766235	0	0	0	NONE	485.0	1
240.40283203125	0.2	RANDOM	0	0.668199124775128	0	0	0	NONE	489.0	1
241.7724609375	0.2	COHERENT	1	0.598746203566407	0	0	0	RIGHT	493.0	1
242.9921875	0.2	COHERENT	1	0.692899258610851	0	0	0	RIGHT	497.0	1
244.4921875	0.2	RANDOM	0	0.549937850479182	0	0	0	NONE	501.0	1
245.84228515625	0.2	COHERENT	1	0.679684259899659	0	0	0	RIGHT	505.0	1
247.18212890625	0.2	COHERENT	1	0.658627072076342	0	0	180	LEFT	509.0	1
248.58203125	0.2	COHERENT	1	0.719380871229077	0	0	0	RIGHT	513.0	1
249.95166015625	0.2	COHERENT	1	0.788164907826285	0	0	180	LEFT	517.0	1
251.48193359375	0.2	COHERENT	1	0.82991918449261	0	0	180	LEFT	520.0	1
252.96142578125	0.2	COHERENT	1	0.617817564743746	0	0	0	RIGHT	524.0	1
254.32177734375	0.2	COHERENT	1	0.664639185648412	0	0	0	RIGHT	528.0	1
255.78125	0.2	RANDOM	0	0.599453120423277	0	0	0	NONE	532.0	1
279.2197265625	0.2	COHERENT	1	0.639193499020621	0	0	180	LEFT	534.0	1
280.65966796875	0.2	COHERENT	1	0.710385037269589	0	0	0	RIGHT	538.0	1
282.26953125	0.2	COHERENT	1	0.609006458842487	0	0	0	RIGHT	541.0	1
283.71923828125	0.2	RANDOM	0	0.52988066929538	0	0	0	NONE	545.0	1
285.12939453125	0.2	RANDOM	0	0.505057987105829	0	0	0	NONE	549.0	1
286.4091796875	0.2	RANDOM	0	0.553469416339794	0	0	0	NONE	553.0	1
287.62890625	0.2	RANDOM	0	0.808417381580512	0	0	0	NONE	557.0	1
289.02880859375	0.2	RANDOM	0	0.5380917108414	0	0	0	NONE	561.0	1
290.44873046875	0.2	COHERENT	1	0.534964313075761	0	0	0	RIGHT	565.0	1
291.6787109375	0.2	COHERENT	1	0.597927906554105	0	0	180	LEFT	569.0	1
292.9287109375	0.2	COHERENT	1	0.599113244941691	0	0	0	RIGHT	573.0	1
294.12841796875	0.2	RANDOM	0	0.547602791204554	0	0	0	NONE	577.0	1
295.478515625	0.2	RANDOM	0	0.649432323425572	0	0	0	NONE	581.0	1
296.998046875	0.2	RANDOM	0	0.584165967899025	0	0	0	NONE	584.0	1
298.41796875	0.2	COHERENT	1	0.636537882230186	0	0	0	RIGHT	588.0	1
299.89794921875	0.2	RANDOM	0	0.606712450247869	0	0	0	NONE	592.0	1
301.30810546875	0.2	COHERENT	1	0.649606185132143	0	0	0	RIGHT	596.0	1
302.7080078125	0.2	RANDOM	0	0.589393892743828	0	0	0	NONE	600.0	1
304.16796875	0.2	RANDOM	0	0.564074678430188	0	0	0	NONE	604.0	1
305.5576171875	0.2	RANDOM	0	0.604122333439591	0	0	0	NONE	608.0	1
306.95751953125	0.2	RANDOM	0	0.619861345290701	0	0	0	NONE	612.0	1
308.24755859375	0.2	COHERENT	1	0.628678488057631	0	0	0	RIGHT	616.0	1
309.49755859375	0.2	COHERENT	1	0.853593956853729	0	0	180	LEFT	620.0	1
311.2470703125	0.2	COHERENT	1	0.46940848988379	0	0	0	RIGHT	623.0	1
312.30712890625	0.2	RANDOM	0	0.528051499284629	0	0	0	NONE	627.0	1
313.546875	0.2	RANDOM	0	0.488118846547877	0	0	0	NONE	631.0	1
314.6767578125	0.2	COHERENT	1	0.587870791780006	0	0	180	LEFT	635.0	1
316.046875	0.2	RANDOM	0	0.564693758908106	0	0	0	NONE	639.0	1
317.36669921875	0.2	COHERENT	1	0.619586969791271	0	0	0	RIGHT	643.0	1
318.7666015625	0.2	COHERENT	1	0.454408993962716	0	0	180	LEFT	647.0	1
319.83642578125	0.2	RANDOM	0	0.503368872356077	0	0	0	NONE	651.0	1
321.1162109375	0.2	RANDOM	0	0.424138343205414	0	0	0	NONE	655.0	1
322.20654296875	0.2	COHERENT	1	0.717902141212107	0	0	0	RIGHT	659.0	1
323.736328125	0.2	COHERENT	1	0.594442824552971	0	0	0	RIGHT	662.0	1
324.986328125	0.2	RANDOM	0	0.499227885004075	0	0	0	NONE	666.0	1
326.2060546875	0.2	COHERENT	1	0.563429035748413	0	0	0	RIGHT	670.0	1
327.52587890625	0.2	COHERENT	1	0.489210915377043	0	0	180	LEFT	674.0	1
328.7958984375	0.2	COHERENT	1	0.614736650830309	0	0	0	RIGHT	678.0	1
330.1259765625	0.2	COHERENT	1	0.563900816727255	0	0	0	RIGHT	682.0	1
331.49560546875	0.2	RANDOM	0	0.549677359762427	0	0	0	NONE	686.0	1
332.765625	0.2	RANDOM	0	0.514602270224714	0	0	0	NONE	690.0	1
334.16552734375	0.2	COHERENT	1	0.554362872313504	0	0	180	LEFT	694.0	1
335.41552734375	0.2	COHERENT	1	0.548352267960581	0	0	180	LEFT	698.0	1
336.8154296875	0.2	RANDOM	0	0.569087087205844	0	0	0	NONE	702.0	1
338.26513671875	0.2	COHERENT	1	0.56382958172253	0	0	180	LEFT	706.0	1
339.69482421875	0.2	COHERENT	1	0.504674344349041	0	0	180	LEFT	710.0	1
340.955078125	0.2	RANDOM	0	0.62945724360543	0	0	0	NONE	714.0	1
342.28466796875	0.2	RANDOM	0	0.528370849428029	0	0	0	NONE	718.0	1
343.61474609375	0.2	RANDOM	0	0.58904948961208	0	0	0	NONE	722.0	1
344.884765625	0.2	COHERENT	1	0.442959174495627	0	0	0	RIGHT	726.0	1
346.20458984375	0.2	RANDOM	0	0.604696137430437	0	0	0	NONE	730.0	1
347.45458984375	0.2	RANDOM	0	0.558684965610155	0	0	0	NONE	734.0	1
348.80419921875	0.2	RANDOM	0	0.419590471170523	0	0	0	NONE	738.0	1
350.04443359375	0.2	COHERENT	1	0.489166544419277	0	0	180	LEFT	742.0	1
351.42431640625	0.2	COHERENT	1	0.447968564836629	0	0	180	LEFT	746.0	1
352.744140625	0.2	RANDOM	0	0.555054395168554	0	0	0	NONE	750.0	1
354.1240234375	0.2	RANDOM	0	0.554843406745931	0	0	0	NONE	754.0	1
355.32373046875	0.2	RANDOM	0	0.548656827781087	0	0	0	NONE	758.0	1
356.78369140625	0.2	COHERENT	1	n/a	0	1	180	LEFT	762.0	0
358.013671875	0.2	COHERENT	1	0.624336774948461	0	0	0	RIGHT	766.0	1
359.513671875	0.2	RANDOM	0	0.614169487391337	0	0	0	NONE	770.0	1
360.8134765625	0.2	RANDOM	0	0.537943203969917	0	0	0	NONE	774.0	1
361.9833984375	0.2	RANDOM	0	0.602851875264605	0	0	0	NONE	778.0	1
363.26318359375	0.2	RANDOM	0	0.503672526650917	0	0	0	NONE	782.0	1
364.6728515625	0.2	COHERENT	1	0.509452220929234	0	0	180	LEFT	786.0	1
366.033203125	0.2	COHERENT	1	0.539315081474342	0	0	0	RIGHT	790.0	1
367.373046875	0.2	COHERENT	1	0.519179421055014	0	0	0	RIGHT	794.0	1
368.52294921875	0.2	RANDOM	0	0.583791682289302	0	0	0	NONE	798.0	1
369.9228515625	0.2	COHERENT	1	0.723898860785994	0	0	0	RIGHT	802.0	1
371.3525390625	0.2	COHERENT	1	0.517537997533509	0	0	180	LEFT	806.0	1
372.54248046875	0.2	COHERENT	1	0.474302576112677	0	0	180	LEFT	810.0	1
373.92236328125	0.2	COHERENT	1	0.448388126937061	0	0	180	LEFT	814.0	1
375.22216796875	0.2	RANDOM	0	0.549077295414463	0	0	0	NONE	818.0	1
376.68212890625	0.2	RANDOM	0	0.569889990216325	0	0	0	NONE	822.0	1
377.89208984375	0.2	RANDOM	0	0.51757753900165	0	0	0	NONE	826.0	1
379.28173828125	0.2	RANDOM	0	0.494605457690341	0	0	0	NONE	830.0	1
380.412109375	0.2	COHERENT	1	0.554301296295307	0	0	0	RIGHT	834.0	1
381.61181640625	0.2	COHERENT	1	0.517356287906296	0	0	0	RIGHT	838.0	1
382.8515625	0.2	COHERENT	1	0.544140649290057	0	0	180	LEFT	842.0	1
384.17138671875	0.2	COHERENT	1	0.424964186302532	0	0	180	LEFT	846.0	1
385.30126953125	0.2	COHERENT	1	0.468831063775724	0	0	180	LEFT	850.0	1
386.47119140625	0.2	RANDOM	0	0.467699453482055	0	0	0	NONE	854.0	1
387.5712890625	0.2	RANDOM	0	0.463473044492275	0	0	0	NONE	858.0	1
388.84130859375	0.2	RANDOM	0	0.479399500993168	0	0	0	NONE	862.0	1
389.9013671875	0.2	RANDOM	0	0.538206109427847	0	0	0	NONE	866.0	1
391.1611328125	0.2	RANDOM	0	0.478120591200422	0	0	0	NONE	870.0	1
392.22119140625	0.2	COHERENT	1	0.788887520531716	0	0	0	RIGHT	874.0	1
393.74072265625	0.2	RANDOM	0	0.664678727116552	0	0	0	NONE	877.0	1
395.11083984375	0.2	COHERENT	1	0.558449527885386	0	0	0	RIGHT	881.0	1
396.390625	0.2	RANDOM	0	0.614426657826698	0	0	0	NONE	885.0	1
397.8603515625	0.2	COHERENT	1	0.449188615195453	0	0	0	RIGHT	889.0	1
398.96044921875	0.2	COHERENT	1	0.577993877413974	0	0	0	RIGHT	893.0	1
400.21044921875	0.2	RANDOM	0	0.563879084013024	0	0	0	NONE	897.0	1
401.50048828125	0.2	COHERENT	1	0.554797224733193	0	0	0	RIGHT	901.0	1
402.8603515625	0.2	RANDOM	0	0.589574998684839	0	0	0	NONE	905.0	1
404.2001953125	0.2	RANDOM	0	0.549403889792302	0	0	0	NONE	909.0	1
405.5498046875	0.2	COHERENT	1	0.47908830061715	0	0	180	LEFT	913.0	1
406.849609375	0.2	RANDOM	0	0.503971049613028	0	0	0	NONE	917.0	1
407.98974609375	0.2	RANDOM	0	0.563780381275137	0	0	0	NONE	921.0	1
409.44970703125	0.2	COHERENT	1	0.598798120601714	0	0	0	RIGHT	925.0	1
410.6494140625	0.2	RANDOM	0	0.548599477569951	0	0	0	NONE	929.0	1
411.8193359375	0.2	RANDOM	0	0.444012003703392	0	0	0	NONE	933.0	1
413.0693359375	0.2	COHERENT	1	0.408330209254927	0	0	180	LEFT	937.0	1
414.1591796875	0.2	RANDOM	0	0.532756933491328	0	0	0	NONE	941.0	1
415.359375	0.2	RANDOM	0	0.493954381825461	0	0	0	NONE	945.0	1
416.60888671875	0.2	COHERENT	1	0.50068156202542	0	0	180	LEFT	949.0	1
418.0087890625	0.2	RANDOM	0	0.479776201351342	0	0	0	NONE	953.0	1
419.35888671875	0.2	RANDOM	0	0.544930573039892	0	0	0	NONE	957.0	1
420.7587890625	0.2	COHERENT	1	0.648094856049283	0	0	180	LEFT	961.0	1
422.30859375	0.2	RANDOM	0	0.489124588209961	0	0	0	NONE	964.0	1
423.69873046875	0.2	RANDOM	0	0.749887563393713	0	0	0	NONE	968.0	1
425.2685546875	0.2	COHERENT	1	0.524385009499383	0	0	0	RIGHT	971.0	1
426.49853515625	0.2	COHERENT	1	0.538433699228335	0	0	0	RIGHT	975.0	1
427.83837890625	0.2	RANDOM	0	0.579452383928583	0	0	0	NONE	979.0	1
429.18798828125	0.2	COHERENT	1	0.623946189803974	0	0	180	LEFT	983.0	1
430.5380859375	0.2	COHERENT	1	0.854935046354512	0	0	0	RIGHT	987.0	1
432.0078125	0.2	RANDOM	0	0.61785891726322	0	0	0	NONE	991.0	1
433.2177734375	0.2	COHERENT	1	0.68866711460214	0	0	0	RIGHT	995.0	1
434.65771484375	0.2	RANDOM	0	0.5394979984776	0	0	0	NONE	999.0	1
435.83740234375	0.2	COHERENT	1	0.678428893883392	0	0	180	LEFT	1003.0	1
437.37744140625	0.2	COHERENT	1	0.579193704274076	0	0	0	RIGHT	1006.0	1
438.70751953125	0.2	COHERENT	1	n/a	0	1	0	RIGHT	1010.0	0
440.00732421875	0.2	COHERENT	1	0.940870419304701	0	0	0	RIGHT	1014.0	1
441.626953125	0.2	COHERENT	1	0.612670835726021	0	0	180	LEFT	1017.0	1
442.8671875	0.2	RANDOM	0	0.673407127967948	0	0	0	NONE	1021.0	1
444.376953125	0.2	COHERENT	1	0.609178207643708	0	0	180	LEFT	1024.0	1
445.61669921875	0.2	COHERENT	1	0.84299141135125	0	0	180	LEFT	1028.0	1
447.3369140625	0.2	RANDOM	0	0.984826340529253	0	0	0	NONE	1031.0	1
449.19677734375	0.2	RANDOM	0	n/a	0	1	0	NONE	1034.0	0
450.65625	0.2	COHERENT	1	0.614700127800461	0	0	180	LEFT	1038.0	1
452.08642578125	0.2	COHERENT	1	0.624361526093708	0	0	180	LEFT	1042.0	1
453.56640625	0.2	COHERENT	1	0.579196119018889	0	0	180	LEFT	1046.0	1
455.0361328125	0.2	RANDOM	0	0.640422302833031	0	0	0	NONE	1050.0	1
456.48583984375	0.2	RANDOM	0	0.588672487410804	0	0	0	NONE	1054.0	1
457.826171875	0.2	COHERENT	1	0.609452884989878	0	0	180	LEFT	1058.0	1
459.3056640625	0.2	RANDOM	0	0.624336171265895	0	0	0	NONE	1062.0	1
460.755859375	0.2	COHERENT	1	0.734126516988908	0	0	0	RIGHT	1066.0	1
462.17578125	0.2	COHERENT	1	0.782906496813666	0	0	180	LEFT	1070.0	1
463.61572265625	0.2	RANDOM	0	0.627805859261571	0	0	0	NONE	1074.0	1
465.12548828125	0.2	COHERENT	1	0.689589245688694	0	0	0	RIGHT	1077.0	1
466.6455078125	0.2	COHERENT	1	0.544759427921235	0	0	180	LEFT	1080.0	1
468.09521484375	0.2	RANDOM	0	0.578146006402676	0	0	0	NONE	1084.0	1
469.28515625	0.2	RANDOM	0	0.917919467017782	0	0	0	NONE	1088.0	1
471.01513671875	0.2	COHERENT	1	0.914842175228841	0	0	180	LEFT	1091.0	1
472.78466796875	0.2	COHERENT	1	0.569583317486831	0	0	0	RIGHT	1094.0	1
474.2548828125	0.2	RANDOM	0	0.65937473777376	0	0	0	NONE	1098.0	1
475.82470703125	0.2	RANDOM	0	0.589145173918951	0	0	0	NONE	1101.0	1
477.2744140625	0.2	COHERENT	1	0.68504046812086	0	0	180	LEFT	1105.0	1
478.57421875	0.2	RANDOM	0	0.55787210177732	0	0	0	NONE	1109.0	1
479.79443359375	0.2	COHERENT	1	0.47365421683935	0	0	0	RIGHT	1113.0	1
501.3427734375	0.2	COHERENT	1	0.679618458078039	0	0	0	RIGHT	1115.0	1
502.62255859375	0.2	RANDOM	0	0.578802213596646	0	0	0	NONE	1119.0	1
504.01220703125	0.2	COHERENT	1	0.489331350825523	0	0	180	LEFT	1123.0	1
505.14208984375	0.2	RANDOM	0	0.568425748675509	0	0	0	NONE	1127.0	1
506.59228515625	0.2	RANDOM	0	0.574193067386659	0	0	0	NONE	1131.0	1
508.06201171875	0.2	COHERENT	1	0.548927279323834	0	0	0	RIGHT	1135.0	1
509.48193359375	0.2	RANDOM	0	0.934825404816365	0	0	0	NONE	1139.0	1
511.2119140625	0.2	RANDOM	0	0.569621047889086	0	0	0	NONE	1142.0	1
512.45166015625	0.2	RANDOM	0	0.618566437809932	0	0	0	NONE	1146.0	1
513.9716796875	0.2	RANDOM	0	0.53935552846815	0	0	0	NONE	1149.0	1
515.13134765625	0.2	RANDOM	0	0.593194702771143	0	0	0	NONE	1153.0	1
516.45166015625	0.2	RANDOM	0	0.654927983225207	0	0	0	NONE	1157.0	1
517.75146484375	0.2	RANDOM	0	0.537842086483579	0	0	0	NONE	1161.0	1
519.09130859375	0.2	COHERENT	1	0.629603939418303	0	0	0	RIGHT	1165.0	1
520.5712890625	0.2	COHERENT	1	0.639401770855329	0	0	0	RIGHT	1169.0	1
522.06103515625	0.2	RANDOM	0	0.529295998945599	0	0	0	NONE	1173.0	1
523.39111328125	0.2	COHERENT	1	0.619176161144424	0	0	0	RIGHT	1177.0	1
524.890625	0.2	COHERENT	1	0.574880364434648	0	0	180	LEFT	1181.0	1
526.36083984375	0.2	RANDOM	0	0.480401318691293	0	0	0	NONE	1185.0	1
527.6904296875	0.2	COHERENT	1	0.498475691660133	0	0	0	RIGHT	1189.0	1
528.96044921875	0.2	RANDOM	0	0.524410968017037	0	0	0	NONE	1193.0	1
530.21044921875	0.2	RANDOM	0	0.564168853521551	0	0	0	NONE	1197.0	1
531.41015625	0.2	RANDOM	0	0.752996548722876	0	0	0	NONE	1201.0	1
533.01025390625	0.2	COHERENT	1	0.649842226543115	0	0	0	RIGHT	1204.0	1
534.3701171875	0.2	COHERENT	1	0.547811364882364	0	0	0	RIGHT	1208.0	1
535.52978515625	0.2	COHERENT	1	0.693451329891104	0	0	180	LEFT	1212.0	1
537.080078125	0.2	RANDOM	0	0.559363509204559	0	0	0	NONE	1215.0	1
538.4697265625	0.2	RANDOM	0	0.555127441235527	0	0	0	NONE	1219.0	1
539.73974609375	0.2	COHERENT	1	0.754961548191204	0	0	0	RIGHT	1223.0	1
541.26953125	0.2	RANDOM	0	0.544811948646384	0	0	0	NONE	1226.0	1
542.46923828125	0.2	RANDOM	0	0.63862633557801	0	0	0	NONE	1230.0	1
543.70947265625	0.2	RANDOM	0	0.658410348634789	0	0	0	NONE	1234.0	1
545.12939453125	0.2	COHERENT	1	0.64922163684605	0	0	180	LEFT	1238.0	1
546.38916015625	0.2	RANDOM	0	0.553006086971436	0	0	0	NONE	1242.0	1
547.8388671875	0.2	COHERENT	1	0.599943917528435	0	0	0	RIGHT	1246.0	1
549.1787109375	0.2	COHERENT	1	0.624815196479176	0	0	180	LEFT	1250.0	1
550.4287109375	0.2	RANDOM	0	0.622622003527795	0	0	0	NONE	1254.0	1
551.8486328125	0.2	RANDOM	0	0.589415625458059	0	0	0	NONE	1258.0	1
553.12841796875	0.2	RANDOM	0	0.55816609708927	0	0	0	NONE	1262.0	1
554.5986328125	0.2	COHERENT	1	0.480113360245014	0	0	180	LEFT	1266.0	1
555.9482421875	0.2	RANDOM	0	0.494900056688493	0	0	0	NONE	1270.0	1
557.1982421875	0.2	COHERENT	1	0.679669469584042	0	0	180	LEFT	1274.0	1
558.748046875	0.2	COHERENT	1	0.474570914750075	0	0	180	LEFT	1277.0	1
559.93798828125	0.2	COHERENT	1	0.648394586380164	0	0	0	RIGHT	1281.0	1
561.31787109375	0.2	COHERENT	1	0.719774474808219	0	0	180	LEFT	1285.0	1
562.86767578125	0.2	RANDOM	0	0.583978523249243	0	0	0	NONE	1288.0	1
564.23779296875	0.2	COHERENT	1	0.664855607250502	0	0	0	RIGHT	1292.0	1
565.7275390625	0.2	COHERENT	1	0.604638183533098	0	0	0	RIGHT	1296.0	1
567.2275390625	0.2	COHERENT	1	0.459409932696872	0	0	0	RIGHT	1300.0	1
568.5576171875	0.2	COHERENT	1	0.484717073279171	0	0	0	RIGHT	1304.0	1
569.8974609375	0.2	RANDOM	0	0.548115924706508	0	0	0	NONE	1308.0	1
571.34716796875	0.2	COHERENT	1	0.539837572116085	0	0	0	RIGHT	1312.0	1
572.6572265625	0.2	COHERENT	1	0.56468470361142	0	0	0	RIGHT	1316.0	1
573.8271484375	0.2	RANDOM	0	0.588482326173107	0	0	0	NONE	1320.0	1
575.09716796875	0.2	COHERENT	1	0.573429705844319	0	0	180	LEFT	1324.0	1
576.546875	0.2	RANDOM	0	0.654082520319207	0	0	0	NONE	1328.0	1
577.99658203125	0.2	RANDOM	0	0.679868082432222	0	0	0	NONE	1332.0	1
579.29638671875	0.2	RANDOM	0	0.613592363122734	0	0	0	NONE	1336.0	1
580.81640625	0.2	COHERENT	1	0.498655288385635	0	0	180	LEFT	1339.0	1
582.13623046875	0.2	RANDOM	0	0.474451686666725	0	0	0	NONE	1343.0	1
583.3662109375	0.2	COHERENT	1	0.569323732303019	0	0	180	LEFT	1347.0	1
584.65625	0.2	RANDOM	0	0.564157987162616	0	0	0	NONE	1351.0	1
586.05615234375	0.2	RANDOM	0	n/a	0	1	0	NONE	1355.0	0
587.3359375	0.2	COHERENT	1	0.609848903313832	0	0	0	RIGHT	1359.0	1
588.67578125	0.2	COHERENT	1	0.624789539804624	0	0	180	LEFT	1363.0	1
590.005859375	0.2	COHERENT	1	0.548568991402135	0	0	180	LEFT	1367.0	1
591.3056640625	0.2	RANDOM	0	0.729398444542312	0	0	0	NONE	1371.0	1
592.7158203125	0.2	RANDOM	0	0.753167090151692	0	0	0	NONE	1375.0	1
594.365234375	0.2	COHERENT	1	0.688975296543504	0	0	180	LEFT	1378.0	1
595.67529296875	0.2	COHERENT	1	0.622717989677767	0	0	0	RIGHT	1382.0	1
597.04541015625	0.2	RANDOM	0	0.749628280056641	0	0	0	NONE	1386.0	1
598.39501953125	0.2	RANDOM	0	0.678436439964571	0	0	0	NONE	1390.0	1
599.865234375	0.2	COHERENT	1	0.602950879845594	0	0	0	RIGHT	1394.0	1
601.31494140625	0.2	RANDOM	0	0.968944556829229	0	0	0	NONE	1398.0	1
602.884765625	0.2	RANDOM	0	0.747640944187879	0	0	0	NONE	1401.0	1
604.33447265625	0.2	COHERENT	1	0.678625393829861	0	0	180	LEFT	1405.0	1
605.6845703125	0.2	COHERENT	1	0.773430430264852	0	0	180	LEFT	1409.0	1
607.2744140625	0.2	RANDOM	0	0.719327143131522	0	0	0	NONE	1412.0	1
608.6044921875	0.2	RANDOM	0	0.903062139263056	0	0	0	NONE	1416.0	1
610.30419921875	0.2	RANDOM	0	0.719887967861723	0	0	0	NONE	1419.0	1
611.904296875	0.2	RANDOM	0	0.644648711822811	0	0	0	NONE	1422.0	1
613.2138671875	0.2	RANDOM	0	0.628586425867979	0	0	0	NONE	1426.0	1
614.513671875	0.2	COHERENT	1	0.923386149861471	0	0	0	RIGHT	1430.0	1
616.23388671875	0.2	RANDOM	0	0.740105729648349	0	0	0	NONE	1433.0	1
617.68359375	0.2	RANDOM	0	0.727933901162032	0	0	0	NONE	1437.0	1
619.2333984375	0.2	RANDOM	0	0.604896561340865	0	0	0	NONE	1440.0	1
620.58349609375	0.2	COHERENT	1	0.559599852458632	0	0	180	LEFT	1444.0	1
621.86328125	0.2	COHERENT	1	0.704400391430681	0	0	0	RIGHT	1448.0	1
623.3134765625	0.2	RANDOM	0	0.599185989161924	0	0	0	NONE	1452.0	1
624.60302734375	0.2	COHERENT	1	0.683594035333954	0	0	0	RIGHT	1456.0	1
625.8828125	0.2	COHERENT	1	0.667644940593163	0	0	0	RIGHT	1460.0	1
627.203125	0.2	RANDOM	0	0.598466998573713	0	0	0	NONE	1464.0	1
628.57275390625	0.2	RANDOM	0	0.66458092990797	0	0	0	NONE	1468.0	1
629.9228515625	0.2	COHERENT	1	0.593441006851208	0	0	0	RIGHT	1472.0	1
631.40283203125	0.2	RANDOM	0	0.479045740717993	0	0	0	NONE	1476.0	1
632.7626953125	0.2	RANDOM	0	0.494924204143899	0	0	0	NONE	1480.0	1
634.04248046875	0.2	RANDOM	0	0.594829485740775	0	0	0	NONE	1484.0	1
635.26220703125	0.2	COHERENT	1	0.593648976842815	0	0	0	RIGHT	1488.0	1
636.59228515625	0.2	RANDOM	0	0.529641005767189	0	0	0	NONE	1492.0	1
637.73193359375	0.2	COHERENT	1	0.66841947033754	0	0	180	LEFT	1496.0	1
639.19189453125	0.2	RANDOM	0	0.499185023265454	0	0	0	NONE	1500.0	1
640.60205078125	0.2	COHERENT	1	n/a	0	1	0	RIGHT	1504.0	0
641.76171875	0.2	RANDOM	0	0.642862705393782	0	0	0	NONE	1508.0	1
643.1015625	0.2	COHERENT	1	n/a	0	1	0	RIGHT	1512.0	0
644.32177734375	0.2	COHERENT	1	0.54856808587283	0	0	180	LEFT	1516.0	1
645.58154296875	0.2	COHERENT	1	0.574384737839864	0	0	180	LEFT	1520.0	1
646.88134765625	0.2	RANDOM	0	0.563988049420004	0	0	0	NONE	1524.0	1
648.30126953125	0.2	COHERENT	1	0.679977953368507	0	0	0	RIGHT	1528.0	1
649.80126953125	0.2	COHERENT	1	0.654854031632567	0	0	0	RIGHT	1532.0	1
651.05126953125	0.2	COHERENT	1	0.598655046909698	0	0	0	RIGHT	1536.0	1
652.541015625	0.2	COHERENT	1	0.635201018540101	0	0	180	LEFT	1540.0	1
654.02099609375	0.2	COHERENT	1	0.558375274449645	0	0	0	RIGHT	1544.0	1
655.1708984375	0.2	RANDOM	0	0.607879979885183	0	0	0	NONE	1548.0	1
656.5107421875	0.2	RANDOM	0	0.604954515245481	0	0	0	NONE	1552.0	1
657.96044921875	0.2	RANDOM	0	0.650863664050121	0	0	0	NONE	1556.0	1
659.240234375	0.2	COHERENT	1	0.753627702932135	0	0	180	LEFT	1560.0	1
660.80029296875	0.2	RANDOM	0	0.719394454172289	0	0	0	NONE	1563.0	1
662.30029296875	0.2	RANDOM	0	0.683941155057255	0	0	0	NONE	1567.0	1
663.580078125	0.2	COHERENT	1	0.618102202912269	0	0	180	LEFT	1571.0	1
664.919921875	0.2	COHERENT	1	0.654906854193541	0	0	180	LEFT	1575.0	1
666.39990234375	0.2	COHERENT	1	0.644669840850838	0	0	0	RIGHT	1579.0	1
667.75	0.2	COHERENT	1	0.798833858843864	0	0	0	RIGHT	1583.0	1
669.14990234375	0.2	RANDOM	0	0.668382343621488	0	0	0	NONE	1587.0	1
670.56982421875	0.2	COHERENT	1	0.939024044229882	0	0	0	RIGHT	1591.0	1
672.109375	0.2	RANDOM	0	0.537931733924779	0	0	0	NONE	1594.0	1
673.3095703125	0.2	COHERENT	1	0.787898983933701	0	0	180	LEFT	1598.0	1
674.859375	0.2	RANDOM	0	0.624357903976488	0	0	0	NONE	1601.0	1
676.18896484375	0.2	RANDOM	0	0.649127763601427	0	0	0	NONE	1605.0	1
677.7392578125	0.2	RANDOM	0	0.598174814320373	0	0	0	NONE	1608.0	1
679.05908203125	0.2	RANDOM	0	0.573997171126393	0	0	0	NONE	1612.0	1
680.30908203125	0.2	COHERENT	1	0.612965736567276	0	0	180	LEFT	1616.0	1
681.52880859375	0.2	RANDOM	0	0.727688502607634	0	0	0	NONE	1620.0	1
683.05859375	0.2	COHERENT	1	0.559561216523434	0	0	180	LEFT	1623.0	1
684.46875	0.2	RANDOM	0	0.539381788828905	0	0	0	NONE	1627.0	1
685.91845703125	0.2	COHERENT	1	0.439175871375483	0	0	180	LEFT	1631.0	1
686.9482421875	0.2	COHERENT	1	0.588078761767974	0	0	180	LEFT	1635.0	1
688.26806640625	0.2	COHERENT	1	0.554895625627978	0	0	180	LEFT	1639.0	1
689.68798828125	0.2	RANDOM	0	0.564697682868427	0	0	0	NONE	1643.0	1
691.0380859375	0.2	COHERENT	1	0.494476570624101	0	0	0	RIGHT	1647.0	1
692.2177734375	0.2	COHERENT	1	0.42839493651627	0	0	180	LEFT	1651.0	1
693.4580078125	0.2	RANDOM	0	0.579973063511716	0	0	0	NONE	1655.0	1
694.8076171875	0.2	COHERENT	1	0.513965380996524	0	0	180	LEFT	1659.0	1
696.12744140625	0.2	RANDOM	0	0.519863095982146	0	0	0	NONE	1663.0	1
697.27734375	0.2	RANDOM	0	0.532803417347168	0	0	0	NONE	1667.0	1
698.45751953125	0.2	COHERENT	1	0.478610482772638	0	0	180	LEFT	1671.0	1
699.59716796875	0.2	COHERENT	1	0.568874287724611	0	0	180	LEFT	1675.0	1
701.00732421875	0.2	COHERENT	1	0.528236227346497	0	0	0	RIGHT	1679.0	1
702.197265625	0.2	COHERENT	1	0.537855367587326	0	0	180	LEFT	1683.0	1
703.3271484375	0.2	COHERENT	1	0.54924179997397	0	0	180	LEFT	1687.0	1
704.69677734375	0.2	COHERENT	1	0.494858704161743	0	0	180	LEFT	1691.0	1
731.6650390625	0.2	RANDOM	0	0.72996651351059	0	0	0	NONE	1693.0	1
733.23486328125	0.2	COHERENT	1	0.704737248481251	0	0	180	LEFT	1696.0	1
734.8046875	0.2	RANDOM	0	0.59489257097448	0	0	0	NONE	1699.0	1
736.15478515625	0.2	COHERENT	1	0.538697208376107	0	0	180	LEFT	1703.0	1
737.4345703125	0.2	RANDOM	0	0.469631250191014	0	0	0	NONE	1707.0	1
738.744140625	0.2	RANDOM	0	0.554495381496963	0	0	0	NONE	1711.0	1
740.14404296875	0.2	RANDOM	0	0.47922443191419	0	0	0	NONE	1715.0	1
741.3740234375	0.2	RANDOM	0	0.529120024340955	0	0	0	NONE	1719.0	1
742.72412109375	0.2	RANDOM	0	0.434897545350395	0	0	0	NONE	1723.0	1
744.0439453125	0.2	COHERENT	1	n/a	0	1	180	LEFT	1727.0	0
745.3740234375	0.2	COHERENT	1	0.514190254205459	0	0	180	LEFT	1731.0	1
746.7138671875	0.2	RANDOM	0	0.494424653588794	0	0	0	NONE	1735.0	1
747.86376953125	0.2	RANDOM	0	0.52820966514264	0	0	0	NONE	1739.0	1
749.013671875	0.2	RANDOM	0	0.59288078580721	0	0	0	NONE	1743.0	1
750.513671875	0.2	RANDOM	0	0.569924098497722	0	0	0	NONE	1747.0	1
751.80322265625	0.2	COHERENT	1	0.524693191440747	0	0	180	LEFT	1751.0	1
753.2333984375	0.2	COHERENT	1	0.539439742733521	0	0	180	LEFT	1755.0	1
754.46337890625	0.2	RANDOM	0	0.598383991684386	0	0	0	NONE	1759.0	1
755.7529296875	0.2	RANDOM	0	0.623338277524454	0	0	0	NONE	1763.0	1
757.02294921875	0.2	RANDOM	0	0.608002528239012	0	0	0	NONE	1767.0	1
758.2529296875	0.2	RANDOM	0	0.672937761737558	0	0	0	NONE	1771.0	1
759.552734375	0.2	COHERENT	1	0.623672719830211	0	0	0	RIGHT	1775.0	1
760.892578125	0.2	COHERENT	1	0.718582797711861	0	0	180	LEFT	1779.0	1
762.22265625	0.2	COHERENT	1	0.813383608343429	0	0	0	RIGHT	1783.0	1
763.79248046875	0.2	RANDOM	0	0.659153486682044	0	0	0	NONE	1786.0	1
765.17236328125	0.2	RANDOM	0	0.594970446527441	0	0	0	NONE	1790.0	1
766.39208984375	0.2	RANDOM	0	0.552847921117063	0	0	0	NONE	1794.0	1
767.58203125	0.2	COHERENT	1	0.523663604166359	0	0	180	LEFT	1798.0	1
768.7822265625	0.2	RANDOM	0	0.543559601061133	0	0	0	NONE	1802.0	1
770.11181640625	0.2	RANDOM	0	0.539261655223527	0	0	0	NONE	1806.0	1
771.41162109375	0.2	RANDOM	0	0.519314344979648	0	0	0	NONE	1810.0	1
772.6015625	0.2	RANDOM	0	0.533129709885543	0	0	0	NONE	1814.0	1
773.76171875	0.2	RANDOM	0	0.523002869322227	0	0	0	NONE	1818.0	1
774.9814453125	0.2	RANDOM	0	0.478827206217829	0	0	0	NONE	1822.0	1
776.37158203125	0.2	COHERENT	1	0.598622145997069	0	0	0	RIGHT	1826.0	1
777.80126953125	0.2	RANDOM	0	0.634466030260228	0	0	0	NONE	1830.0	1
779.05126953125	0.2	RANDOM	0	0.563196314615197	0	0	0	NONE	1834.0	1
780.4912109375	0.2	RANDOM	0	0.58397973062165	0	0	0	NONE	1838.0	1
781.7509765625	0.2	RANDOM	0	0.542875926134002	0	0	0	NONE	1842.0	1
783.07080078125	0.2	RANDOM	0	0.544693626095977	0	0	0	NONE	1846.0	1
784.4208984375	0.2	COHERENT	1	0.549621518766799	0	0	0	RIGHT	1850.0	1
785.74072265625	0.2	COHERENT	1	0.484419455846364	0	0	180	LEFT	1854.0	1
786.91064453125	0.2	RANDOM	0	0.703341827200347	0	0	0	NONE	1858.0	1
788.310546875	0.2	RANDOM	0	0.517988045801758	0	0	0	NONE	1862.0	1
789.6806640625	0.2	RANDOM	0	0.509962637843273	0	0	0	NONE	1866.0	1
791.00048828125	0.2	RANDOM	0	0.459663179168274	0	0	0	NONE	1870.0	1
792.150390625	0.2	COHERENT	1	0.51862342581444	0	0	0	RIGHT	1874.0	1
793.5	0.2	COHERENT	1	0.444445752433239	0	0	180	LEFT	1878.0	1
794.669921875	0.2	RANDOM	0	0.494395676640124	0	0	0	NONE	1882.0	1
795.93017578125	0.2	RANDOM	0	0.555333600161248	0	0	0	NONE	1886.0	1
797.080078125	0.2	COHERENT	1	0.54691458862726	0	0	0	RIGHT	1890.0	1
798.43994140625	0.2	COHERENT	1	0.510192944231676	0	0	180	LEFT	1894.0	1
799.849609375	0.2	RANDOM	0	0.568578783197154	0	0	0	NONE	1898.0	1
801.11962890625	0.2	COHERENT	1	0.74803454776702	0	0	0	RIGHT	1902.0	1
802.76953125	0.2	COHERENT	1	0.489174090500455	0	0	180	LEFT	1905.0	1
803.9091796875	0.2	COHERENT	1	0.517965407558222	0	0	180	LEFT	1909.0	1
805.119140625	0.2	COHERENT	1	0.547767899453902	0	0	0	RIGHT	1913.0	1
806.279296875	0.2	RANDOM	0	0.518728769100562	0	0	0	NONE	1917.0	1
807.68896484375	0.2	COHERENT	1	n/a	0	1	0	RIGHT	1921.0	0
808.98876953125	0.2	COHERENT	1	0.48943216646876	0	0	0	RIGHT	1925.0	1
810.35888671875	0.2	COHERENT	1	0.49415722048434	0	0	180	LEFT	1929.0	1
811.64892578125	0.2	COHERENT	1	0.498993654651713	0	0	0	RIGHT	1933.0	1
812.8486328125	0.2	COHERENT	1	0.437915675865952	0	0	180	LEFT	1937.0	1
814.07861328125	0.2	COHERENT	1	0.590182005431416	0	0	180	LEFT	1941.0	1
815.478515625	0.2	RANDOM	0	0.578508520127798	0	0	0	NONE	1945.0	1
816.87841796875	0.2	COHERENT	1	n/a	0	1	180	LEFT	1949.0	0
818.0380859375	0.2	COHERENT	1	0.518217748503957	0	0	0	RIGHT	1953.0	1
819.2880859375	0.2	RANDOM	0	0.493983056934667	0	0	0	NONE	1957.0	1
820.59814453125	0.2	RANDOM	0	0.644919767051761	0	0	0	NONE	1961.0	1
822.05810546875	0.2	COHERENT	1	0.559667767189239	0	0	180	LEFT	1965.0	1
823.337890625	0.2	RANDOM	0	0.574578521198418	0	0	0	NONE	1969.0	1
824.8076171875	0.2	COHERENT	1	0.709272744945338	0	0	0	RIGHT	1973.0	1
826.28759765625	0.2	COHERENT	1	0.544932384098502	0	0	180	LEFT	1977.0	1
827.6875	0.2	COHERENT	1	0.569085276147234	0	0	0	RIGHT	1981.0	1
828.92724609375	0.2	COHERENT	1	0.672608450764528	0	0	180	LEFT	1985.0	1
830.50732421875	0.2	RANDOM	0	0.629623257384083	0	0	0	NONE	1988.0	1
831.857421875	0.2	RANDOM	0	0.564411535484396	0	0	0	NONE	1992.0	1
833.3271484375	0.2	RANDOM	0	0.559195986210398	0	0	0	NONE	1996.0	1
834.52685546875	0.2	COHERENT	1	0.54802114593258	0	0	180	LEFT	2000.0	1
835.72705078125	0.2	COHERENT	1	0.73791495144178	0	0	0	RIGHT	2004.0	1
837.0966796875	0.2	RANDOM	0	0.533889751157403	0	0	0	NONE	2008.0	1
838.23681640625	0.2	COHERENT	1	0.588623890649615	0	0	0	RIGHT	2012.0	1
839.48681640625	0.2	COHERENT	1	n/a	0	1	0	RIGHT	2016.0	0
840.83642578125	0.2	COHERENT	1	0.564416364974022	0	0	0	RIGHT	2020.0	1
842.13623046875	0.2	RANDOM	0	0.515180903708824	0	0	0	NONE	2024.0	1
843.25634765625	0.2	RANDOM	0	0.727747060198453	0	0	0	NONE	2028.0	1
844.6064453125	0.2	RANDOM	0	0.603854900331498	0	0	0	NONE	2032.0	1
845.8359375	0.2	COHERENT	1	0.523656963614485	0	0	0	RIGHT	2036.0	1
847.255859375	0.2	RANDOM	0	0.619390167998063	0	0	0	NONE	2040.0	1
848.7060546875	0.2	COHERENT	1	0.644193230382371	0	0	180	LEFT	2044.0	1
850.2255859375	0.2	COHERENT	1	0.605092457601131	0	0	180	LEFT	2047.0	1
851.7255859375	0.2	COHERENT	1	0.659853762990679	0	0	0	RIGHT	2051.0	1
853.0654296875	0.2	RANDOM	0	0.523667829969781	0	0	0	NONE	2055.0	1
854.265625	0.2	COHERENT	1	0.533652502370387	0	0	180	LEFT	2059.0	1
855.41552734375	0.2	RANDOM	0	0.543419243957032	0	0	0	NONE	2063.0	1
856.6455078125	0.2	COHERENT	1	0.56319872936001	0	0	0	RIGHT	2067.0	1
857.9951171875	0.2	COHERENT	1	0.579132731942082	0	0	0	RIGHT	2071.0	1
859.4150390625	0.2	COHERENT	1	0.684900111016759	0	0	0	RIGHT	2075.0	1
861.0048828125	0.2	RANDOM	0	0.569690471835202	0	0	0	NONE	2078.0	1
862.28466796875	0.2	COHERENT	1	0.624567685026705	0	0	180	LEFT	2082.0	1
863.56494140625	0.2	RANDOM	0	0.558406967989868	0	0	0	NONE	2086.0	1
864.82470703125	0.2	COHERENT	1	0.508060421772825	0	0	180	LEFT	2090.0	1
865.9345703125	0.2	RANDOM	0	0.598076413425588	0	0	0	NONE	2094.0	1
867.38427734375	0.2	RANDOM	0	0.779868142799387	0	0	0	NONE	2098.0	1
869.05419921875	0.2	RANDOM	0	0.52964674078612	0	0	0	NONE	2101.0	1
870.39404296875	0.2	COHERENT	1	0.579260109785537	0	0	0	RIGHT	2105.0	1
871.6943359375	0.2	COHERENT	1	0.564383765904495	0	0	0	RIGHT	2109.0	1
872.94384765625	0.2	RANDOM	0	0.63329004901243	0	0	0	NONE	2113.0	1
874.44384765625	0.2	RANDOM	0	0.634968599246349	0	0	0	NONE	2117.0	1
875.81396484375	0.2	RANDOM	0	0.614855878910021	0	0	0	NONE	2121.0	1
877.23388671875	0.2	RANDOM	0	0.599587440665346	0	0	0	NONE	2125.0	1
878.43359375	0.2	RANDOM	0	0.598410252045142	0	0	0	NONE	2129.0	1
879.763671875	0.2	COHERENT	1	0.579322893179778	0	0	180	LEFT	2133.0	1
881.103515625	0.2	RANDOM	0	0.52904516721901	0	0	0	NONE	2137.0	1
882.353515625	0.2	RANDOM	0	0.494947446077276	0	0	0	NONE	2141.0	1
883.453125	0.2	RANDOM	0	0.677342560076795	0	0	0	NONE	2145.0	1
884.98291015625	0.2	COHERENT	1	0.599866041971836	0	0	0	RIGHT	2148.0	1
886.30322265625	0.2	COHERENT	1	n/a	0	1	180	LEFT	2152.0	0
887.57275390625	0.2	RANDOM	0	0.737851262518234	0	0	0	NONE	2156.0	1
889.15283203125	0.2	COHERENT	1	0.559175159025472	0	0	0	RIGHT	2159.0	1
890.44287109375	0.2	COHERENT	1	0.58490306908061	0	0	180	LEFT	2163.0	1
891.79248046875	0.2	RANDOM	0	0.574559806918842	0	0	0	NONE	2167.0	1
893.12255859375	0.2	COHERENT	1	0.57960541844659	0	0	180	LEFT	2171.0	1
894.322265625	0.2	RANDOM	0	0.483382322490797	0	0	0	NONE	2175.0	1
895.412109375	0.2	COHERENT	1	0.448263163834781	0	0	0	RIGHT	2179.0	1
896.5419921875	0.2	COHERENT	1	0.563142284674541	0	0	180	LEFT	2183.0	1
897.83203125	0.2	RANDOM	0	0.5248866729562	0	0	0	NONE	2187.0	1
899.14208984375	0.2	COHERENT	1	0.529889120905864	0	0	0	RIGHT	2191.0	1
900.48193359375	0.2	COHERENT	1	0.559695536765503	0	0	180	LEFT	2195.0	1
901.8017578125	0.2	COHERENT	1	0.629460563875909	0	0	180	LEFT	2199.0	1
903.01171875	0.2	COHERENT	1	0.718371507446136	0	0	180	LEFT	2203.0	1
904.4814453125	0.2	COHERENT	1	0.739410584676079	0	0	0	RIGHT	2207.0	1
905.8515625	0.2	COHERENT	1	0.642938769891771	0	0	180	LEFT	2211.0	1
907.17138671875	0.2	COHERENT	1	0.583814018686098	0	0	0	RIGHT	2215.0	1
908.55126953125	0.2	RANDOM	0	0.539729210395308	0	0	0	NONE	2219.0	1
910.0009765625	0.2	RANDOM	0	0.649272346512589	0	0	0	NONE	2223.0	1
911.40087890625	0.2	COHERENT	1	0.609159493360494	0	0	0	RIGHT	2227.0	1
912.791015625	0.2	COHERENT	1	0.504085448199476	0	0	180	LEFT	2231.0	1
914.0107421875	0.2	RANDOM	0	0.634889818164083	0	0	0	NONE	2235.0	1
915.36083984375	0.2	RANDOM	0	0.707650035707047	0	0	0	NONE	2239.0	1
916.9306640625	0.2	RANDOM	0	0.594431958197674	0	0	0	NONE	2242.0	1
918.4306640625	0.2	COHERENT	1	0.750380473396945	0	0	0	RIGHT	2246.0	1
919.7802734375	0.2	COHERENT	1	0.538010515010683	0	0	0	RIGHT	2250.0	1
921.150390625	0.2	COHERENT	1	0.59492154792315	0	0	0	RIGHT	2254.0	1
922.580078125	0.2	RANDOM	0	0.499813159036421	0	0	0	NONE	2258.0	1
923.7001953125	0.2	COHERENT	1	0.788375594402169	0	0	180	LEFT	2262.0	1
925.22998046875	0.2	COHERENT	1	0.889227456384106	0	0	0	RIGHT	2265.0	1
926.75	0.2	COHERENT	1	0.763214244103438	0	0	0	RIGHT	2268.0	1
928.25	0.2	RANDOM	0	0.608946392039798	0	0	0	NONE	2272.0	1
929.4697265625	0.2	COHERENT	1	n/a	0	1	180	LEFT	2276.0	0
