onset	duration	trial_type	trial_type_id	response_time	bad_epoch	outliers	event_num	response_accuracy
22.37158203125	0.2	SCRAMBLED	0	1.07592262912658	0	0	1.0	1
24.29150390625	0.2	SCRAMBLED	0	0.686008781223791	0	0	5.0	1
25.68115234375	0.2	SCRAMBLED	0	0.568717932928848	0	0	13.0	1
27.00146484375	0.2	FACES	1	0.459529160772945	0	0	21.0	1
28.43115234375	0.2	SCRAMBLED	0	0.436436040323315	0	0	29.0	1
n/a	0.2	FACES	1	0.440334647559212	1	0	n/a	1
30.80078125	0.2	SCRAMBLED	0	0.422190850647894	0	0	37.0	1
32.10107421875	0.2	SCRAMBLED	0	n/a	0	1	45.0	0
33.3505859375	0.2	FACES	1	0.473887541662407	0	0	53.0	1
34.78076171875	0.2	FACES	1	0.391641598584101	0	0	61.0	1
35.99072265625	0.2	FACES	1	0.381379834092513	0	0	69.0	1
37.150390625	0.2	SCRAMBLED	0	0.421364403868211	0	0	77.0	1
38.29052734375	0.2	SCRAMBLED	0	0.405223034984374	0	0	85.0	1
39.64013671875	0.2	FACES	1	0.36510897446351	0	0	93.0	1
40.89013671875	0.2	FACES	1	0.542880453780526	0	0	101.0	1
42.169921875	0.2	FACES	1	0.411664067796664	0	0	109.0	1
43.2900390625	0.2	SCRAMBLED	0	0.482618055415514	0	0	117.0	1
44.58984375	0.2	FACES	1	0.420377376485703	0	0	125.0	1
45.72998046875	0.2	FACES	1	0.429046012377512	0	0	133.0	1
47.0595703125	0.2	FACES	1	0.482027951889904	0	0	141.0	1
48.39990234375	0.2	FACES	1	0.31288103935367	0	0	149.0	1
49.45947265625	0.2	FACES	1	0.361738291048823	0	0	157.0	1
50.54931640625	0.2	SCRAMBLED	0	0.416604637881392	0	0	165.0	1
51.8994140625	0.2	SCRAMBLED	0	0.353533890054678	0	0	173.0	1
n/a	0.2	SCRAMBLED	0	0.457371887165209	1	0	n/a	1
54.04931640625	0.2	SCRAMBLED	0	0.422153723931842	0	0	181.0	1
55.43896484375	0.2	SCRAMBLED	0	0.359445791669714	0	0	189.0	1
56.51904296875	0.2	SCRAMBLED	0	0.315889510886336	0	0	197.0	1
57.5888671875	0.2	SCRAMBLED	0	0.335703406421089	0	0	205.0	1
58.888671875	0.2	SCRAMBLED	0	0.39659424240017	0	0	213.0	1
60.10888671875	0.2	SCRAMBLED	0	0.305405589773727	0	0	221.0	1
61.3388671875	0.2	FACES	1	0.423302237446478	0	0	229.0	1
62.58837890625	0.2	SCRAMBLED	0	0.493107409707591	0	0	237.0	1
63.82861328125	0.2	SCRAMBLED	0	0.397889451727679	0	0	245.0	1
64.92822265625	0.2	SCRAMBLED	0	0.37586183789972	0	0	253.0	1
66.17822265625	0.2	SCRAMBLED	0	0.336613463779941	0	0	261.0	1
67.30810546875	0.2	FACES	1	0.411454588593188	0	0	269.0	1
68.64794921875	0.2	SCRAMBLED	0	0.327368307305733	0	0	277.0	1
69.89794921875	0.2	FACES	1	0.407119817878993	0	0	285.0	1
71.06787109375	0.2	FACES	1	0.491937465325464	0	0	293.0	1
72.498046875	0.2	SCRAMBLED	0	0.402916650818952	0	0	301.0	1
73.57763671875	0.2	SCRAMBLED	0	n/a	0	1	309.0	0
74.837890625	0.2	SCRAMBLED	0	0.477437821802596	0	0	317.0	1
76.28759765625	0.2	SCRAMBLED	0	0.36823848513086	0	0	325.0	1
77.58740234375	0.2	SCRAMBLED	0	0.453188038074586	0	0	333.0	1
78.91748046875	0.2	SCRAMBLED	0	0.343294160116784	0	0	341.0	1
80.00732421875	0.2	FACES	1	0.395847180392593	0	0	349.0	1
81.1572265625	0.2	FACES	1	0.41066979617608	0	0	357.0	1
82.35693359375	0.2	FACES	1	0.405440663958871	0	0	365.0	1
83.68701171875	0.2	FACES	1	0.386398279733839	0	0	373.0	1
84.98681640625	0.2	SCRAMBLED	0	0.325028116694739	0	0	381.0	1
86.0068359375	0.2	SCRAMBLED	0	0.438037318690476	0	0	389.0	1
87.2568359375	0.2	FACES	1	0.526880649373197	0	0	397.0	1
88.44677734375	0.2	FACES	1	0.525488246526947	0	0	405.0	1
89.9267578125	0.2	FACES	1	n/a	0	1	413.0	0
91.16650390625	0.2	SCRAMBLED	0	0.436391065679345	0	0	421.0	1
92.31640625	0.2	SCRAMBLED	0	0.474372000058793	0	0	429.0	1
93.59619140625	0.2	SCRAMBLED	0	0.558112972677918	0	0	437.0	1
95.01611328125	0.2	SCRAMBLED	0	0.468943651299924	0	0	445.0	1
96.44580078125	0.2	SCRAMBLED	0	0.417789070739673	0	0	453.0	1
97.74609375	0.2	FACES	1	0.418315787184838	0	0	461.0	1
98.9560546875	0.2	FACES	1	0.498390873708559	0	0	469.0	1
100.1357421875	0.2	FACES	1	0.497293673546665	0	0	477.0	1
101.3056640625	0.2	SCRAMBLED	0	0.533136954127258	0	0	485.0	1
102.7353515625	0.2	SCRAMBLED	0	0.354412253869668	0	0	493.0	1
103.9853515625	0.2	FACES	1	0.452747950635967	0	0	501.0	1
105.35546875	0.2	SCRAMBLED	0	0.449627495261666	0	0	509.0	1
106.6455078125	0.2	FACES	1	0.468919805683981	0	0	517.0	1
107.9052734375	0.2	FACES	1	0.471070438739844	0	0	525.0	1
109.30517578125	0.2	FACES	1	0.438969712446124	0	0	533.0	1
110.59521484375	0.2	SCRAMBLED	0	0.453877749867388	0	0	541.0	1
111.89501953125	0.2	FACES	1	0.413700000422978	0	0	549.0	1
112.99462890625	0.2	FACES	1	0.547599772773538	0	0	557.0	1
114.49462890625	0.2	SCRAMBLED	0	0.47920511394841	0	0	564.0	1
115.64453125	0.2	SCRAMBLED	0	0.517818108059146	0	0	572.0	1
116.89453125	0.2	FACES	1	0.577120041241869	0	0	580.0	1
118.1845703125	0.2	FACES	1	0.550742564544635	0	0	588.0	1
119.564453125	0.2	SCRAMBLED	0	0.503824957486358	0	0	596.0	1
120.9541015625	0.2	FACES	1	0.437573687479016	0	0	604.0	1
122.35400390625	0.2	FACES	1	0.443177708999428	0	0	612.0	1
123.673828125	0.2	FACES	1	0.409208573073556	0	0	620.0	1
124.77392578125	0.2	FACES	1	0.547068528674572	0	0	628.0	1
126.02392578125	0.2	SCRAMBLED	0	0.446866535181471	0	0	636.0	1
127.37353515625	0.2	FACES	1	0.452856010513642	0	0	644.0	1
128.49365234375	0.2	SCRAMBLED	0	0.467642706953484	0	0	652.0	1
129.67333984375	0.2	FACES	1	0.441428225603886	0	0	660.0	1
131.04345703125	0.2	SCRAMBLED	0	0.444364254755783	0	0	668.0	1
132.29345703125	0.2	FACES	1	0.423118414910277	0	0	676.0	1
133.4931640625	0.2	FACES	1	0.438805811569182	0	0	684.0	1
134.59326171875	0.2	SCRAMBLED	0	0.508767036786594	0	0	692.0	1
135.76318359375	0.2	FACES	1	0.531618682649423	0	0	700.0	1
137.033203125	0.2	SCRAMBLED	0	0.463576576723426	0	0	708.0	1
138.462890625	0.2	FACES	1	0.472194201109232	0	0	716.0	1
139.90283203125	0.2	SCRAMBLED	0	0.439143574152695	0	0	724.0	1
141.1826171875	0.2	SCRAMBLED	0	0.439794650006661	0	0	732.0	1
142.32275390625	0.2	FACES	1	0.417199872743367	0	0	740.0	1
143.38232421875	0.2	FACES	1	0.471795768036827	0	0	748.0	1
144.65234375	0.2	SCRAMBLED	0	0.462589549340919	0	0	756.0	1
146.072265625	0.2	FACES	1	0.493328660799307	0	0	764.0	1
147.52197265625	0.2	FACES	1	0.643110820536094	0	0	772.0	1
148.921875	0.2	SCRAMBLED	0	n/a	0	1	780.0	0
150.0419921875	0.2	FACES	1	0.616864947489375	0	0	788.0	1
151.4716796875	0.2	FACES	1	0.412613968459482	0	0	796.0	1
152.66162109375	0.2	FACES	1	0.447611182447872	0	0	804.0	1
153.94189453125	0.2	FACES	1	0.396726147893787	0	0	812.0	1
155.29150390625	0.2	FACES	1	0.351185851519404	0	0	820.0	1
156.3115234375	0.2	SCRAMBLED	0	0.448095037154417	0	0	828.0	1
157.66162109375	0.2	SCRAMBLED	0	0.390002589814685	0	0	836.0	1
158.80126953125	0.2	FACES	1	0.526640684001904	0	0	844.0	1
160.201171875	0.2	SCRAMBLED	0	0.403645300393691	0	0	852.0	1
161.47119140625	0.2	SCRAMBLED	0	0.417344455650891	0	0	860.0	1
162.65087890625	0.2	SCRAMBLED	0	0.417203193017485	0	0	868.0	1
163.7509765625	0.2	FACES	1	0.487147213170829	0	0	876.0	1
165.0009765625	0.2	FACES	1	0.402669743052684	0	0	884.0	1
166.3408203125	0.2	SCRAMBLED	0	0.474891170422779	0	0	892.0	1
167.720703125	0.2	FACES	1	0.442630165365699	0	0	900.0	1
168.99072265625	0.2	FACES	1	0.357385107901791	0	0	908.0	1
170.26025390625	0.2	FACES	1	0.414050138577295	0	0	916.0	1
171.6103515625	0.2	FACES	1	0.38686009988669	0	0	924.0	1
172.8203125	0.2	SCRAMBLED	0	0.463625777170819	0	0	932.0	1
174.22998046875	0.2	FACES	1	0.369552710584685	0	0	940.0	1
175.2802734375	0.2	FACES	1	0.335633076949307	0	0	948.0	1
176.4599609375	0.2	FACES	1	0.323422914370894	0	0	956.0	1
177.6796875	0.2	SCRAMBLED	0	0.403327459462162	0	0	964.0	1
178.97998046875	0.2	FACES	1	0.303104638787772	0	0	972.0	1
180.0498046875	0.2	FACES	1	0.410927268458181	0	0	980.0	1
181.2197265625	0.2	SCRAMBLED	0	0.517905944438098	0	0	988.0	1
182.3994140625	0.2	FACES	1	0.442653407295438	0	0	996.0	1
183.599609375	0.2	SCRAMBLED	0	0.467588677016465	0	0	1004.0	1
184.83935546875	0.2	SCRAMBLED	0	0.437400731305388	0	0	1012.0	1
186.04931640625	0.2	SCRAMBLED	0	0.354176212458697	0	0	1020.0	1
187.369140625	0.2	FACES	1	0.363137636290048	0	0	1028.0	1
188.4189453125	0.2	SCRAMBLED	0	0.512943339799676	0	0	1036.0	1
189.8388671875	0.2	SCRAMBLED	0	0.35877539784633	0	0	1044.0	1
190.93896484375	0.2	FACES	1	0.446624456908467	0	0	1052.0	1
192.05859375	0.2	SCRAMBLED	0	0.403448498604121	0	0	1060.0	1
193.228515625	0.2	SCRAMBLED	0	0.457457308802987	0	0	1068.0	1
194.52880859375	0.2	FACES	1	0.417119582441956	0	0	1076.0	1
195.888671875	0.2	SCRAMBLED	0	0.388892410392145	0	0	1084.0	1
196.9482421875	0.2	FACES	1	0.451876831059053	0	0	1092.0	1
198.3583984375	0.2	SCRAMBLED	0	0.407678227868018	0	0	1100.0	1
199.59814453125	0.2	FACES	1	0.378417846422963	0	0	1108.0	1
200.8779296875	0.2	SCRAMBLED	0	0.41940302652074	0	0	1116.0	1
202.09814453125	0.2	FACES	1	0.327157922569313	0	0	1124.0	1
203.19775390625	0.2	SCRAMBLED	0	n/a	0	1	1132.0	0
204.31787109375	0.2	SCRAMBLED	0	0.46587964061473	0	0	1140.0	1
205.56787109375	0.2	SCRAMBLED	0	0.511673485303618	0	0	1148.0	1
206.74755859375	0.2	FACES	1	0.441613255505217	0	0	1156.0	1
208.11767578125	0.2	FACES	1	0.477366888640972	0	0	1164.0	1
209.3076171875	0.2	SCRAMBLED	0	0.407672794688551	0	0	1172.0	1
233.8857421875	0.2	FACES	1	0.471737210449646	0	0	1176.0	1
235.07568359375	0.2	FACES	1	0.351981208445068	0	0	1184.0	1
236.25537109375	0.2	FACES	1	0.388803668483888	0	0	1192.0	1
237.42529296875	0.2	SCRAMBLED	0	0.402475959694129	0	0	1200.0	1
238.75537109375	0.2	FACES	1	0.398439108259481	0	0	1208.0	1
240.0751953125	0.2	FACES	1	0.403063950318028	0	0	1216.0	1
241.365234375	0.2	SCRAMBLED	0	0.353130627489008	0	0	1224.0	1
242.375	0.2	SCRAMBLED	0	0.407920004297921	0	0	1232.0	1
243.544921875	0.2	SCRAMBLED	0	0.397584891899896	0	0	1240.0	1
244.81494140625	0.2	SCRAMBLED	0	0.418635439174977	0	0	1248.0	1
245.884765625	0.2	FACES	1	0.502443119152304	0	0	1256.0	1
247.19482421875	0.2	FACES	1	0.545446724972862	0	0	1264.0	1
248.70458984375	0.2	FACES	1	0.483191859406361	0	0	1270.0	1
249.8642578125	0.2	SCRAMBLED	0	0.56297295062177	0	0	1278.0	1
251.3642578125	0.2	FACES	1	0.448849645243172	0	0	1285.0	1
252.7744140625	0.2	SCRAMBLED	0	0.498680945056549	0	0	1293.0	1
254.0341796875	0.2	FACES	1	0.462511070098117	0	0	1301.0	1
255.25390625	0.2	SCRAMBLED	0	0.498372461272083	0	0	1309.0	1
256.5537109375	0.2	FACES	1	0.563177902178722	0	0	1317.0	1
258.09375	0.2	SCRAMBLED	0	0.508895622006094	0	0	1323.0	1
259.353515625	0.2	FACES	1	0.531831180283916	0	0	1331.0	1
260.54345703125	0.2	SCRAMBLED	0	0.678267709594365	0	0	1339.0	1
261.8935546875	0.2	SCRAMBLED	0	0.697381328820484	0	0	1347.0	1
263.29345703125	0.2	FACES	1	0.612346052403154	0	0	1355.0	1
264.5634765625	0.2	SCRAMBLED	0	0.657139588609425	0	0	1363.0	1
266.0830078125	0.2	FACES	1	0.653865495034552	0	0	1369.0	1
267.59326171875	0.2	SCRAMBLED	0	0.507684626943956	0	0	1375.0	1
268.783203125	0.2	SCRAMBLED	0	0.853271588282951	0	0	1383.0	1
270.35302734375	0.2	FACES	1	0.642350779267872	0	0	1389.0	1
271.90283203125	0.2	FACES	1	0.643119272146578	0	0	1395.0	1
273.47265625	0.2	FACES	1	0.57896098314086	0	0	1401.0	1
274.75244140625	0.2	FACES	1	0.701550689442229	0	0	1409.0	1
276.1923828125	0.2	FACES	1	0.827407245084032	0	0	1417.0	1
277.90234375	0.2	SCRAMBLED	0	0.654397040969343	0	0	1422.0	1
279.25244140625	0.2	SCRAMBLED	0	0.702157092502603	0	0	1430.0	1
280.662109375	0.2	FACES	1	0.722069992614706	0	0	1438.0	1
282.2421875	0.2	SCRAMBLED	0	0.71870353500708	0	0	1444.0	1
283.64208984375	0.2	SCRAMBLED	0	0.542619057538104	0	0	1452.0	1
285.0419921875	0.2	FACES	1	0.633453949889372	0	0	1460.0	1
286.6416015625	0.2	SCRAMBLED	0	0.568297163456009	0	0	1466.0	1
288.0517578125	0.2	SCRAMBLED	0	0.672967946058634	0	0	1474.0	1
289.38134765625	0.2	SCRAMBLED	0	0.757932893004181	0	0	1482.0	1
290.93115234375	0.2	SCRAMBLED	0	0.694633649847674	0	0	1488.0	1
292.5810546875	0.2	SCRAMBLED	0	0.678983983594662	0	0	1494.0	1
294.10107421875	0.2	SCRAMBLED	0	0.713046690922056	0	0	1500.0	1
295.55078125	0.2	SCRAMBLED	0	0.732137370065175	0	0	1508.0	1
297.19091796875	0.2	FACES	1	0.723918782434339	0	0	1514.0	1
298.82080078125	0.2	FACES	1	0.673693879041821	0	0	1520.0	1
300.32080078125	0.2	FACES	1	0.677454845761531	0	0	1527.0	1
301.890625	0.2	SCRAMBLED	0	0.763338301672775	0	0	1533.0	1
303.51025390625	0.2	SCRAMBLED	0	0.767977934054215	0	0	1539.0	1
305.16015625	0.2	FACES	1	0.607997698745748	0	0	1545.0	1
306.66015625	0.2	SCRAMBLED	0	0.773637494727154	0	0	1552.0	1
308.26025390625	0.2	SCRAMBLED	0	1.11416677080342	0	0	1558.0	1
310.15966796875	0.2	SCRAMBLED	0	0.833173356419138	0	0	1562.0	1
311.8798828125	0.2	SCRAMBLED	0	0.725072427281702	0	0	1567.0	1
313.349609375	0.2	SCRAMBLED	0	0.781859100785368	0	0	1575.0	1
314.83935546875	0.2	SCRAMBLED	0	0.467648743819154	0	0	1583.0	1
316.16943359375	0.2	SCRAMBLED	0	0.398486497644626	0	0	1591.0	1
317.3994140625	0.2	SCRAMBLED	0	0.414356207616947	0	0	1599.0	1
318.51904296875	0.2	FACES	1	0.672143008498097	0	0	1607.0	1
319.93896484375	0.2	SCRAMBLED	0	0.482677518535638	0	0	1615.0	1
321.1689453125	0.2	FACES	1	0.431891790409281	0	0	1623.0	1
322.2890625	0.2	SCRAMBLED	0	0.512711524192127	0	0	1631.0	1
323.5888671875	0.2	FACES	1	0.498858127040876	0	0	1639.0	1
325.03857421875	0.2	FACES	1	0.441340992907499	0	0	1647.0	1
326.3388671875	0.2	SCRAMBLED	0	0.48803946177577	0	0	1655.0	1
327.69873046875	0.2	SCRAMBLED	0	0.420059837404551	0	0	1663.0	1
328.8583984375	0.2	SCRAMBLED	0	0.52285919194037	0	0	1671.0	1
330.25830078125	0.2	SCRAMBLED	0	0.393683568076085	0	0	1679.0	1
331.6181640625	0.2	SCRAMBLED	0	0.398604820195033	0	0	1687.0	1
332.7783203125	0.2	FACES	1	0.461386402203061	0	0	1695.0	1
334.02783203125	0.2	SCRAMBLED	0	0.593134635968454	0	0	1703.0	1
335.44775390625	0.2	SCRAMBLED	0	0.544465432612924	0	0	1711.0	1
336.84765625	0.2	SCRAMBLED	0	0.427837432063825	0	0	1719.0	1
337.99755859375	0.2	SCRAMBLED	0	0.447671852936764	0	0	1727.0	1
339.1376953125	0.2	SCRAMBLED	0	0.572584242938319	0	0	1735.0	1
340.48779296875	0.2	FACES	1	0.498351634087157	0	0	1743.0	1
341.7373046875	0.2	FACES	1	0.491933541365142	0	0	1751.0	1
343.02734375	0.2	FACES	1	0.57911673425042	0	0	1759.0	1
344.4072265625	0.2	SCRAMBLED	0	0.568861006624502	0	0	1767.0	1
345.7373046875	0.2	SCRAMBLED	0	0.627656446860783	0	0	1775.0	1
347.1572265625	0.2	SCRAMBLED	0	0.42343082266234	0	0	1783.0	1
348.3271484375	0.2	FACES	1	0.662363891340647	0	0	1791.0	1
349.77685546875	0.2	SCRAMBLED	0	0.664166197300801	0	0	1799.0	1
351.126953125	0.2	FACES	1	0.606930079222366	0	0	1807.0	1
352.61669921875	0.2	FACES	1	0.648718162330624	0	0	1815.0	1
354.19677734375	0.2	SCRAMBLED	0	0.562621001405205	0	0	1821.0	1
355.6962890625	0.2	SCRAMBLED	0	0.533385974791599	0	0	1828.0	1
357.09619140625	0.2	SCRAMBLED	0	0.688154282943287	0	0	1836.0	1
358.71630859375	0.2	FACES	1	0.448913032323617	0	0	1842.0	1
360.10595703125	0.2	FACES	1	0.398880704913608	0	0	1850.0	1
361.18603515625	0.2	FACES	1	0.786623394418712	0	0	1858.0	1
362.6259765625	0.2	FACES	1	0.672290006150433	0	0	1866.0	1
364.15576171875	0.2	FACES	1	0.772056741698179	0	0	1872.0	1
365.87548828125	0.2	FACES	1	0.553132257442485	0	0	1877.0	1
367.29541015625	0.2	FACES	1	0.733849424897926	0	0	1885.0	1
368.70556640625	0.2	FACES	1	0.51744895378215	0	0	1893.0	1
370.10546875	0.2	FACES	1	0.558539477169688	0	0	1901.0	1
371.34521484375	0.2	SCRAMBLED	0	0.523115456846426	0	0	1909.0	1
372.71533203125	0.2	FACES	1	0.547037740667292	0	0	1917.0	1
374.06494140625	0.2	FACES	1	0.483582142711384	0	0	1925.0	1
375.23486328125	0.2	FACES	1	0.548009374044341	0	0	1933.0	1
376.48486328125	0.2	FACES	1	0.782421434734715	0	0	1941.0	1
378.11474609375	0.2	FACES	1	0.662427882107295	0	0	1947.0	1
379.6845703125	0.2	FACES	1	0.323415670132817	0	0	1953.0	1
380.66455078125	0.2	FACES	1	0.432178843322617	0	0	1963.0	1
382.03466796875	0.2	SCRAMBLED	0	0.483938619574474	0	0	1971.0	1
383.234375	0.2	FACES	1	0.481855901249219	0	0	1979.0	1
384.50439453125	0.2	SCRAMBLED	0	0.483687787844246	0	0	1987.0	1
385.904296875	0.2	FACES	1	0.409467252724426	0	0	1995.0	1
387.173828125	0.2	FACES	1	0.443378132906219	0	0	2003.0	1
388.5537109375	0.2	SCRAMBLED	0	0.393173754851887	0	0	2011.0	1
389.74365234375	0.2	FACES	1	0.409071536239935	0	0	2019.0	1
390.91357421875	0.2	FACES	1	0.449876515933283	0	0	2027.0	1
392.16357421875	0.2	SCRAMBLED	0	0.468657503912254	0	0	2035.0	1
393.37353515625	0.2	SCRAMBLED	0	0.481582129432354	0	0	2043.0	1
394.8134765625	0.2	SCRAMBLED	0	0.488391410988697	0	0	2051.0	1
396.21337890625	0.2	FACES	1	0.402222411375988	0	0	2059.0	1
397.29345703125	0.2	FACES	1	0.357965552440874	0	0	2067.0	1
398.51318359375	0.2	SCRAMBLED	0	0.82889080458699	0	0	2075.0	1
400.1630859375	0.2	FACES	1	0.408660123910522	0	0	2081.0	1
401.3330078125	0.2	FACES	1	0.411602189935365	0	0	2089.0	1
402.68310546875	0.2	SCRAMBLED	0	0.283379183321813	0	0	2097.0	1
403.8330078125	0.2	SCRAMBLED	0	0.38817674008169	0	0	2105.0	1
405.15283203125	0.2	FACES	1	0.379072544401424	0	0	2113.0	1
406.22265625	0.2	SCRAMBLED	0	0.541881956356519	0	0	2121.0	1
407.49267578125	0.2	FACES	1	0.437725816471357	0	0	2129.0	1
408.7421875	0.2	FACES	1	0.41364808338767	0	0	2137.0	1
409.84228515625	0.2	SCRAMBLED	0	0.512453750070563	0	0	2145.0	1
411.06201171875	0.2	FACES	1	0.61135993055359	0	0	2153.0	1
412.3623046875	0.2	FACES	1	0.556108129905624	0	0	2161.0	1
413.7919921875	0.2	FACES	1	0.538874994039361	0	0	2169.0	1
415.26171875	0.2	FACES	1	0.55779392437762	0	0	2177.0	1
416.681640625	0.2	FACES	1	0.413614276945736	0	0	2185.0	1
417.83154296875	0.2	SCRAMBLED	0	0.433270610308682	0	0	2193.0	1
419.1015625	0.2	SCRAMBLED	0	0.423327894117392	0	0	2201.0	1
420.21142578125	0.2	SCRAMBLED	0	0.372167578534572	0	0	2209.0	1
421.45166015625	0.2	SCRAMBLED	0	0.309047630260466	0	0	2217.0	1
422.53125	0.2	FACES	1	0.449342253403302	0	0	2225.0	1
423.68115234375	0.2	FACES	1	0.501639310612518	0	0	2233.0	1
425.0009765625	0.2	FACES	1	0.382580566485558	0	0	2241.0	1
426.291015625	0.2	FACES	1	0.303321664076066	0	0	2249.0	1
427.4208984375	0.2	FACES	1	0.377056835270196	0	0	2257.0	1
428.49072265625	0.2	SCRAMBLED	0	0.592967112970655	0	0	2265.0	1
429.99072265625	0.2	SCRAMBLED	0	0.338915923981403	0	0	2272.0	1
431.220703125	0.2	SCRAMBLED	0	0.413693359871104	0	0	2280.0	1
432.310546875	0.2	FACES	1	0.477599006091623	0	0	2288.0	1
433.6904296875	0.2	SCRAMBLED	0	0.449402923895832	0	0	2296.0	1
434.96044921875	0.2	SCRAMBLED	0	0.439084111032571	0	0	2304.0	1
452.4189453125	0.2	FACES	1	0.532714977278374	0	0	2308.0	1
453.9091796875	0.2	FACES	1	0.333884499083069	0	0	2316.0	1
455.10888671875	0.2	SCRAMBLED	0	0.418620648855722	0	0	2324.0	1
456.3388671875	0.2	SCRAMBLED	0	0.49844762023713	0	0	2332.0	1
457.728515625	0.2	FACES	1	0.418188409341383	0	0	2340.0	1
458.99853515625	0.2	FACES	1	0.343209342168848	0	0	2348.0	1
460.12841796875	0.2	SCRAMBLED	0	0.503919736260286	0	0	2356.0	1
461.36865234375	0.2	SCRAMBLED	0	0.31273343801513	0	0	2364.0	1
462.568359375	0.2	SCRAMBLED	0	0.384658757167927	0	0	2372.0	1
463.67822265625	0.2	FACES	1	0.44651066201186	0	0	2380.0	1
465.01806640625	0.2	FACES	1	0.368435890610272	0	0	2388.0	1
466.087890625	0.2	FACES	1	0.392297503938607	0	0	2396.0	1
467.23779296875	0.2	FACES	1	0.382117840807041	0	0	2404.0	1
468.56787109375	0.2	FACES	1	0.323933029438194	0	0	2412.0	1
469.5576171875	0.2	SCRAMBLED	0	0.447747917431116	0	0	2422.0	1
470.9375	0.2	FACES	1	0.358262566187477	0	0	2430.0	1
472.107421875	0.2	FACES	1	0.283438646438299	0	0	2438.0	1
473.177734375	0.2	FACES	1	0.348380218641978	0	0	2446.0	1
474.42724609375	0.2	FACES	1	0.373101179662626	0	0	2454.0	1
475.67724609375	0.2	SCRAMBLED	0	0.464957811371278	0	0	2462.0	1
476.87744140625	0.2	FACES	1	0.426632473863719	0	0	2470.0	1
478.04736328125	0.2	SCRAMBLED	0	0.722670056969946	0	0	2478.0	1
479.72705078125	0.2	FACES	1	0.413485088036396	0	0	2484.0	1
480.876953125	0.2	SCRAMBLED	0	0.432369608250156	0	0	2492.0	1
482.1767578125	0.2	FACES	1	0.448180458788556	0	0	2500.0	1
483.39697265625	0.2	FACES	1	0.402985471075226	0	0	2508.0	1
484.716796875	0.2	SCRAMBLED	0	0.45887385910828	0	0	2516.0	1
486.08642578125	0.2	SCRAMBLED	0	0.408689704549033	0	0	2524.0	1
487.29638671875	0.2	FACES	1	0.393578224786324	0	0	2532.0	1
488.41650390625	0.2	SCRAMBLED	0	0.423400336494524	0	0	2540.0	1
489.55615234375	0.2	SCRAMBLED	0	0.428185759159533	0	0	2548.0	1
490.88623046875	0.2	FACES	1	0.273907644419523	0	0	2556.0	1
491.8759765625	0.2	SCRAMBLED	0	n/a	0	1	2566.0	0
492.93603515625	0.2	FACES	1	0.667872530393652	0	0	2574.0	1
494.52587890625	0.2	SCRAMBLED	0	0.43960780904672	0	0	2580.0	1
495.7255859375	0.2	SCRAMBLED	0	0.48713212101211	0	0	2588.0	1
496.9755859375	0.2	SCRAMBLED	0	0.428332454968768	0	0	2596.0	1
498.15576171875	0.2	SCRAMBLED	0	0.427118743315077	0	0	2604.0	1
499.4453125	0.2	SCRAMBLED	0	0.398923566652229	0	0	2612.0	1
500.765625	0.2	SCRAMBLED	0	0.288862467543368	0	0	2620.0	1
n/a	0.2	FACES	1	n/a	1	1	n/a	0
n/a	0.2	FACES	1	0.517381642741384	1	0	n/a	1
504.4150390625	0.2	SCRAMBLED	0	0.453241464325401	0	0	2628.0	1
505.69482421875	0.2	SCRAMBLED	0	0.404140021455532	0	0	2636.0	1
507.03515625	0.2	FACES	1	0.53886292030802	0	0	2644.0	1
508.3349609375	0.2	FACES	1	0.392840519918536	0	0	2652.0	1
509.4345703125	0.2	SCRAMBLED	0	0.44769630223891	0	0	2660.0	1
510.8544921875	0.2	SCRAMBLED	0	0.418488139672263	0	0	2668.0	1
511.9248046875	0.2	SCRAMBLED	0	0.337375919789338	0	0	2676.0	1
513.00439453125	0.2	FACES	1	0.427167943766108	0	0	2684.0	1
514.2841796875	0.2	FACES	1	0.522907185015356	0	0	2692.0	1
515.57421875	0.2	SCRAMBLED	0	0.437615040002129	0	0	2700.0	1
516.654296875	0.2	FACES	1	0.451516732075106	0	0	2708.0	1
517.77392578125	0.2	FACES	1	0.431581495562568	0	0	2716.0	1
519.15380859375	0.2	SCRAMBLED	0	0.32840966646836	0	0	2724.0	1
520.173828125	0.2	FACES	1	0.387318297918682	0	0	2732.0	1
521.34375	0.2	FACES	1	0.418125927790243	0	0	2740.0	1
522.62353515625	0.2	SCRAMBLED	0	0.387938283925905	0	0	2748.0	1
523.74365234375	0.2	FACES	1	0.316833978373324	0	0	2756.0	1
524.8935546875	0.2	SCRAMBLED	0	0.394989040069049	0	0	2764.0	1
526.013671875	0.2	SCRAMBLED	0	0.487582471119822	0	0	2772.0	1
527.18359375	0.2	FACES	1	0.407428301667096	0	0	2780.0	1
528.51318359375	0.2	FACES	1	0.40819045583703	0	0	2788.0	1
529.60302734375	0.2	FACES	1	0.357142727782048	0	0	2796.0	1
530.76318359375	0.2	SCRAMBLED	0	0.388874903484975	0	0	2804.0	1
532.06298828125	0.2	SCRAMBLED	0	0.618692306437879	0	0	2812.0	1
533.4228515625	0.2	FACES	1	0.396512744729989	0	0	2820.0	1
534.65283203125	0.2	FACES	1	0.358418317293399	0	0	2828.0	1
535.6728515625	0.2	FACES	1	0.452092648971302	0	0	2836.0	1
536.9228515625	0.2	FACES	1	0.423654790341971	0	0	2844.0	1
538.29248046875	0.2	SCRAMBLED	0	0.33296508458443	0	0	2852.0	1
539.40234375	0.2	SCRAMBLED	0	0.493826400295802	0	0	2860.0	1
540.7421875	0.2	SCRAMBLED	0	0.483976349980367	0	0	2868.0	1
541.912109375	0.2	FACES	1	0.476412158488529	0	0	2876.0	1
543.31201171875	0.2	SCRAMBLED	0	n/a	0	1	2884.0	0
544.6123046875	0.2	FACES	1	0.393152927670599	0	0	2892.0	1
545.7421875	0.2	FACES	1	0.456988848101901	0	0	2900.0	1
546.89208984375	0.2	SCRAMBLED	0	0.472464048962138	0	0	2908.0	1
548.0517578125	0.2	SCRAMBLED	0	0.451669162910548	0	0	2916.0	1
549.28173828125	0.2	FACES	1	0.40760638917709	0	0	2924.0	1
550.6318359375	0.2	FACES	1	0.386365378824848	0	0	2932.0	1
551.71142578125	0.2	FACES	1	0.452174750327686	0	0	2940.0	1
552.931640625	0.2	SCRAMBLED	0	0.507068564897054	0	0	2948.0	1
554.1513671875	0.2	FACES	1	0.471912581368088	0	0	2956.0	1
555.35107421875	0.2	SCRAMBLED	0	0.502798388639349	0	0	2964.0	1
556.77099609375	0.2	FACES	1	0.393621690211148	0	0	2972.0	1
557.87109375	0.2	SCRAMBLED	0	0.597124098014319	0	0	2980.0	1
559.19091796875	0.2	SCRAMBLED	0	0.467079769321572	0	0	2988.0	1
560.4609375	0.2	FACES	1	0.383152559417795	0	0	2996.0	1
561.49072265625	0.2	FACES	1	0.881914398465597	0	0	3004.0	1
563.07080078125	0.2	SCRAMBLED	0	0.451730738932383	0	0	3010.0	1
564.36083984375	0.2	FACES	1	0.328479090414476	0	0	3018.0	1
565.49072265625	0.2	SCRAMBLED	0	0.378394302646484	0	0	3026.0	1
566.560546875	0.2	SCRAMBLED	0	0.672325925494079	0	0	3034.0	1
568.18017578125	0.2	FACES	1	0.403133374264144	0	0	3040.0	1
569.35009765625	0.2	FACES	1	0.690904678511288	0	0	3048.0	1
570.7802734375	0.2	SCRAMBLED	0	0.362750371419679	0	0	3056.0	1
571.97998046875	0.2	SCRAMBLED	0	0.483630739476212	0	0	3064.0	1
573.2998046875	0.2	FACES	1	0.457456705116783	0	0	3072.0	1
574.5498046875	0.2	FACES	1	0.542800465322216	0	0	3080.0	1
575.98974609375	0.2	SCRAMBLED	0	0.473030005028704	0	0	3088.0	1
577.41943359375	0.2	FACES	1	0.332866985532746	0	0	3096.0	1
578.6396484375	0.2	FACES	1	0.538801646129286	0	0	3104.0	1
580.0693359375	0.2	SCRAMBLED	0	0.489872253907379	0	0	3112.0	1
581.4091796875	0.2	FACES	1	0.517272073644563	0	0	3120.0	1
582.67919921875	0.2	SCRAMBLED	0	0.397064212316764	0	0	3128.0	1
583.9091796875	0.2	SCRAMBLED	0	0.555086088712414	0	0	3136.0	1
585.208984375	0.2	SCRAMBLED	0	0.382924365934741	0	0	3144.0	1
586.43896484375	0.2	FACES	1	0.393626821547514	0	0	3152.0	1
587.62890625	0.2	SCRAMBLED	0	0.534488608136598	0	0	3160.0	1
588.85888671875	0.2	FACES	1	0.422430212332984	0	0	3168.0	1
590.1484375	0.2	SCRAMBLED	0	0.378335443216201	0	0	3176.0	1
591.19873046875	0.2	SCRAMBLED	0	0.658124201247119	0	0	3184.0	1
592.5283203125	0.2	SCRAMBLED	0	0.550895900905743	0	0	3192.0	1
593.96826171875	0.2	SCRAMBLED	0	0.374476075605344	0	0	3200.0	1
595.01806640625	0.2	SCRAMBLED	0	0.46762459636011	0	0	3208.0	1
596.34814453125	0.2	FACES	1	0.468420255128876	0	0	3216.0	1
597.587890625	0.2	FACES	1	0.512383118752041	0	0	3224.0	1
598.84814453125	0.2	FACES	1	0.452130077534093	0	0	3232.0	1
600.16796875	0.2	FACES	1	0.54291607128107	0	0	3240.0	1
601.48779296875	0.2	SCRAMBLED	0	0.603862748259417	0	0	3248.0	1
602.837890625	0.2	SCRAMBLED	0	0.522641261122772	0	0	3256.0	1
604.23779296875	0.2	FACES	1	0.498156945199298	0	0	3264.0	1
605.67724609375	0.2	FACES	1	0.586982165292284	0	0	3272.0	1
606.92724609375	0.2	SCRAMBLED	0	0.547172664595564	0	0	3280.0	1
608.17724609375	0.2	FACES	1	0.436964567830728	0	0	3288.0	1
609.52734375	0.2	SCRAMBLED	0	0.478875501135917	0	0	3296.0	1
610.697265625	0.2	FACES	1	0.407614840787573	0	0	3304.0	1
611.9169921875	0.2	SCRAMBLED	0	0.458436488261214	0	0	3312.0	1
613.14697265625	0.2	SCRAMBLED	0	0.434359962549934	0	0	3320.0	1
614.296875	0.2	SCRAMBLED	0	1.13775068835457	0	0	3328.0	1
616.0966796875	0.2	SCRAMBLED	0	0.586631725291227	0	0	3332.0	1
617.61669921875	0.2	SCRAMBLED	0	0.333843146556319	0	0	3338.0	1
618.7666015625	0.2	FACES	1	0.483641002141667	0	0	3346.0	1
620.00634765625	0.2	FACES	1	0.482382014004543	0	0	3354.0	1
621.3564453125	0.2	SCRAMBLED	0	0.518094898303389	0	0	3362.0	1
622.6162109375	0.2	SCRAMBLED	0	0.42812086286358	0	0	3370.0	1
624.005859375	0.2	FACES	1	0.433875202310446	0	0	3378.0	1
625.35595703125	0.2	FACES	1	0.351674837562314	0	0	3386.0	1
626.48583984375	0.2	FACES	1	0.448500110778696	0	0	3394.0	1
627.845703125	0.2	SCRAMBLED	0	0.468441082313802	0	0	3402.0	1
629.07568359375	0.2	SCRAMBLED	0	0.487178906711051	0	0	3410.0	1
630.37548828125	0.2	FACES	1	0.383151955735229	0	0	3418.0	1
631.62548828125	0.2	FACES	1	0.378898984537955	0	0	3426.0	1
632.92529296875	0.2	SCRAMBLED	0	0.458847598747525	0	0	3434.0	1
634.3154296875	0.2	SCRAMBLED	0	0.463593178101291	0	0	3442.0	1
635.54541015625	0.2	SCRAMBLED	0	0.387466502943425	0	0	3450.0	1
636.6953125	0.2	FACES	1	0.472377721798694	0	0	3458.0	1
638.044921875	0.2	FACES	1	0.437117904191837	0	0	3466.0	1
639.1650390625	0.2	SCRAMBLED	0	0.612924384044163	0	0	3474.0	1
659.63330078125	0.2	SCRAMBLED	0	0.487025872193044	0	0	3478.0	1
660.83349609375	0.2	SCRAMBLED	0	0.368161816950305	0	0	3486.0	1
662.05322265625	0.2	FACES	1	0.414069456543075	0	0	3494.0	1
663.30322265625	0.2	SCRAMBLED	0	0.293917134371441	0	0	3502.0	1
664.57275390625	0.2	SCRAMBLED	0	0.358728913986852	0	0	3510.0	1
665.77294921875	0.2	FACES	1	0.333461314865417	0	0	3518.0	1
667.07275390625	0.2	SCRAMBLED	0	0.259400454815477	0	0	3526.0	1
668.24267578125	0.2	FACES	1	0.438152019120025	0	0	3534.0	1
669.3427734375	0.2	SCRAMBLED	0	0.317109259402059	0	0	3542.0	1
670.3427734375	0.2	SCRAMBLED	0	0.422821703014051	0	0	3551.0	1
671.6123046875	0.2	FACES	1	0.388806988758006	0	0	3559.0	1
672.79248046875	0.2	FACES	1	0.43361863555765	0	0	3567.0	1
674.1123046875	0.2	FACES	1	0.508460364060738	0	0	3575.0	1
675.48193359375	0.2	FACES	1	0.603327580203768	0	0	3583.0	1
676.89208984375	0.2	SCRAMBLED	0	0.498141249354376	0	0	3591.0	1
678.35205078125	0.2	SCRAMBLED	0	0.528887605047203	0	0	3599.0	1
679.56201171875	0.2	FACES	1	0.426719706560107	0	0	3607.0	1
680.86181640625	0.2	FACES	1	0.428651503272704	0	0	3615.0	1
682.2314453125	0.2	SCRAMBLED	0	n/a	0	1	3623.0	0
683.32177734375	0.2	SCRAMBLED	0	0.657354802839109	0	0	3631.0	1
684.87158203125	0.2	SCRAMBLED	0	0.392123944078776	0	0	3637.0	1
685.9912109375	0.2	FACES	1	0.5270487760572	0	0	3645.0	1
687.39111328125	0.2	SCRAMBLED	0	0.548895585783612	0	0	3653.0	1
688.8212890625	0.2	SCRAMBLED	0	0.50334381936409	0	0	3661.0	1
690.1708984375	0.2	FACES	1	0.453373067975917	0	0	3669.0	1
691.44091796875	0.2	SCRAMBLED	0	0.429228023847827	0	0	3677.0	1
692.7607421875	0.2	SCRAMBLED	0	0.583768742199027	0	0	3685.0	1
694.2109375	0.2	SCRAMBLED	0	0.508881435373041	0	0	3693.0	1
695.66064453125	0.2	FACES	1	0.413705433598807	0	0	3701.0	1
696.79052734375	0.2	SCRAMBLED	0	0.54759796171129	0	0	3709.0	1
698.150390625	0.2	SCRAMBLED	0	0.468390070804162	0	0	3717.0	1
699.30029296875	0.2	FACES	1	0.547210696840921	0	0	3725.0	1
700.7802734375	0.2	SCRAMBLED	0	0.484986619288975	0	0	3733.0	1
702.14990234375	0.2	FACES	1	0.457906451538292	0	0	3741.0	1
703.27001953125	0.2	SCRAMBLED	0	0.567710078365053	0	0	3749.0	1
704.69970703125	0.2	FACES	1	0.463617023717234	0	0	3757.0	1
705.81982421875	0.2	SCRAMBLED	0	0.557415111114096	0	0	3765.0	1
707.18994140625	0.2	FACES	1	0.50306159594038	0	0	3773.0	1
708.349609375	0.2	SCRAMBLED	0	0.618081375730981	0	0	3781.0	1
709.8193359375	0.2	FACES	1	0.473862186827319	0	0	3789.0	1
711.08935546875	0.2	SCRAMBLED	0	0.363709327379183	0	0	3797.0	1
712.38916015625	0.2	SCRAMBLED	0	0.414576251336257	0	0	3805.0	1
713.75927734375	0.2	FACES	1	0.333138342604798	0	0	3813.0	1
714.88916015625	0.2	SCRAMBLED	0	0.419102390660555	0	0	3821.0	1
716.1591796875	0.2	SCRAMBLED	0	0.434144446477148	0	0	3829.0	1
717.23876953125	0.2	SCRAMBLED	0	0.417898337989755	0	0	3837.0	1
718.4287109375	0.2	SCRAMBLED	0	0.438822412947047	0	0	3845.0	1
719.60888671875	0.2	SCRAMBLED	0	0.512610104866326	0	0	3853.0	1
721.048828125	0.2	FACES	1	0.557425675629929	0	0	3861.0	1
722.318359375	0.2	SCRAMBLED	0	0.568071384717769	0	0	3869.0	1
723.54833984375	0.2	FACES	1	0.57210551956814	0	0	3877.0	1
724.9482421875	0.2	FACES	1	0.847612027606374	0	0	3885.0	1
726.66845703125	0.2	SCRAMBLED	0	0.597650512620021	0	0	3890.0	1
728.16796875	0.2	FACES	1	0.432645794811833	0	0	3898.0	1
729.39794921875	0.2	SCRAMBLED	0	0.508106905628665	0	0	3906.0	1
730.7177734375	0.2	SCRAMBLED	0	0.479228054035048	0	0	3914.0	1
732.15771484375	0.2	FACES	1	0.484070525068091	0	0	3922.0	1
733.3076171875	0.2	SCRAMBLED	0	0.517910472088261	0	0	3930.0	1
734.53759765625	0.2	FACES	1	0.471547049211949	0	0	3938.0	1
735.83740234375	0.2	FACES	1	0.568246453796746	0	0	3946.0	1
737.33740234375	0.2	SCRAMBLED	0	0.492352197932632	0	0	3953.0	1
738.74755859375	0.2	FACES	1	0.433120292374952	0	0	3961.0	1
740.107421875	0.2	FACES	1	0.519157386497682	0	0	3969.0	1
741.3671875	0.2	FACES	1	0.456709341262467	0	0	3977.0	1
742.52685546875	0.2	FACES	1	0.482659106095525	0	0	3985.0	1
743.966796875	0.2	SCRAMBLED	0	n/a	0	1	3993.0	0
745.14697265625	0.2	SCRAMBLED	0	0.493140914306423	0	0	4001.0	1
746.3369140625	0.2	SCRAMBLED	0	0.431155594757001	0	0	4009.0	1
747.4365234375	0.2	SCRAMBLED	0	0.517998006624111	0	0	4017.0	1
748.896484375	0.2	FACES	1	0.403885869451187	0	0	4025.0	1
749.96630859375	0.2	SCRAMBLED	0	0.637664059344388	0	0	4033.0	1
751.486328125	0.2	FACES	1	0.538518819019373	0	0	4039.0	1
752.9560546875	0.2	SCRAMBLED	0	0.494405939309218	0	0	4047.0	1
754.1259765625	0.2	SCRAMBLED	0	0.488160500914091	0	0	4055.0	1
755.5361328125	0.2	FACES	1	0.588967388255696	0	0	4063.0	1
757.05615234375	0.2	FACES	1	0.557874214679032	0	0	4069.0	1
n/a	0.2	FACES	1	0.476644879621745	1	0	n/a	1
n/a	0.2	SCRAMBLED	0	0.432644587435789	1	0	n/a	1
760.85546875	0.2	SCRAMBLED	0	0.516974456215394	0	0	4077.0	1
762.275390625	0.2	SCRAMBLED	0	0.509172110410873	0	0	4085.0	1
763.6455078125	0.2	FACES	1	0.413948115561652	0	0	4093.0	1
764.96533203125	0.2	FACES	1	0.612822964714724	0	0	4101.0	1
766.2451171875	0.2	FACES	1	0.841525962445303	0	0	4109.0	1
768.044921875	0.2	FACES	1	0.703386500001216	0	0	4114.0	1
769.60498046875	0.2	FACES	1	0.583166866788815	0	0	4120.0	1
770.96484375	0.2	SCRAMBLED	0	0.523971786107722	0	0	4128.0	1
772.2548828125	0.2	FACES	1	0.501764575554262	0	0	4136.0	1
773.48486328125	0.2	SCRAMBLED	0	0.542057930961164	0	0	4144.0	1
774.9345703125	0.2	FACES	1	0.46255664842829	0	0	4152.0	1
776.28466796875	0.2	FACES	1	0.498369744680531	0	0	4160.0	1
777.59423828125	0.2	SCRAMBLED	0	0.48901139699592	0	0	4168.0	1
778.84423828125	0.2	FACES	1	0.472990463564201	0	0	4176.0	1
780.07421875	0.2	SCRAMBLED	0	0.54784939712772	0	0	4184.0	1
781.4140625	0.2	SCRAMBLED	0	0.503671922964713	0	0	4192.0	1
782.84375	0.2	SCRAMBLED	0	n/a	0	1	4200.0	0
783.97412109375	0.2	FACES	1	0.817239957526908	0	0	4208.0	1
785.513671875	0.2	SCRAMBLED	0	0.48768509781803	0	0	4214.0	1
786.84375	0.2	FACES	1	0.512959035648237	0	0	4222.0	1
788.03369140625	0.2	SCRAMBLED	0	0.517824446767918	0	0	4230.0	1
789.45361328125	0.2	FACES	1	0.664282105102757	0	0	4238.0	1
790.853515625	0.2	SCRAMBLED	0	0.461370706354501	0	0	4246.0	1
792.0634765625	0.2	FACES	1	0.532329825309716	0	0	4254.0	1
793.27294921875	0.2	FACES	1	0.571579708648642	0	0	4262.0	1
794.77294921875	0.2	FACES	1	0.507937269729155	0	0	4269.0	1
796.10302734375	0.2	FACES	1	0.628891891221429	0	0	4277.0	1
797.5029296875	0.2	FACES	1	0.438956129502913	0	0	4285.0	1
798.70263671875	0.2	SCRAMBLED	0	0.557203820855648	0	0	4293.0	1
800.12255859375	0.2	FACES	1	0.453207356040366	0	0	4301.0	1
801.3427734375	0.2	FACES	1	0.531643433791032	0	0	4309.0	1
802.62255859375	0.2	FACES	1	0.52092316942435	0	0	4317.0	1
804.04248046875	0.2	SCRAMBLED	0	0.423918903175945	0	0	4325.0	1
805.2421875	0.2	SCRAMBLED	0	0.523629194034584	0	0	4333.0	1
806.58203125	0.2	SCRAMBLED	0	0.489467783969303	0	0	4341.0	1
807.8818359375	0.2	FACES	1	0.503319671908685	0	0	4349.0	1
809.10205078125	0.2	SCRAMBLED	0	0.647133485341328	0	0	4357.0	1
810.60205078125	0.2	SCRAMBLED	0	0.508911619694118	0	0	4364.0	1
811.90185546875	0.2	SCRAMBLED	0	0.544543006322783	0	0	4372.0	1
813.1015625	0.2	FACES	1	0.501582262244483	0	0	4380.0	1
814.5517578125	0.2	FACES	1	0.523377154935588	0	0	4388.0	1
815.9716796875	0.2	FACES	1	0.498185620308504	0	0	4396.0	1
817.29150390625	0.2	FACES	1	0.459603112365585	0	0	4404.0	1
818.64111328125	0.2	FACES	1	0.437877643616957	0	0	4412.0	1
819.9013671875	0.2	FACES	1	0.388709191549424	0	0	4420.0	1
821.14111328125	0.2	FACES	1	0.424101518328825	0	0	4428.0	1
822.4208984375	0.2	SCRAMBLED	0	0.448408652275248	0	0	4436.0	1
823.81103515625	0.2	SCRAMBLED	0	0.464251498196973	0	0	4444.0	1
825.04052734375	0.2	FACES	1	0.452535754840937	0	0	4452.0	1
826.380859375	0.2	SCRAMBLED	0	n/a	0	1	4460.0	0
827.810546875	0.2	FACES	1	0.408910050111444	0	0	4468.0	1
829.0302734375	0.2	FACES	1	0.372478778914228	0	0	4476.0	1
830.33056640625	0.2	FACES	1	0.427334561230964	0	0	4484.0	1
831.46044921875	0.2	FACES	1	0.34219695995489	0	0	4492.0	1
832.52001953125	0.2	FACES	1	0.36314940817465	0	0	4500.0	1
833.72998046875	0.2	SCRAMBLED	0	0.438926548864401	0	0	4508.0	1
834.919921875	0.2	FACES	1	0.406763341015903	0	0	4516.0	1
836.08984375	0.2	FACES	1	0.411669500976132	0	0	4524.0	1
837.36962890625	0.2	SCRAMBLED	0	0.413610352981777	0	0	4532.0	1
838.669921875	0.2	FACES	1	0.41735834044448	0	0	4540.0	1
839.86962890625	0.2	SCRAMBLED	0	0.354171986651636	0	0	4548.0	1
840.91943359375	0.2	SCRAMBLED	0	0.372974103662273	0	0	4556.0	1
842.20947265625	0.2	SCRAMBLED	0	0.538930533195526	0	0	4564.0	1
843.41943359375	0.2	FACES	1	0.446668526019494	0	0	4572.0	1
844.67919921875	0.2	SCRAMBLED	0	0.588604572683835	0	0	4580.0	1
846.12890625	0.2	SCRAMBLED	0	0.36840842287711	0	0	4588.0	1
847.18896484375	0.2	SCRAMBLED	0	0.412051634510135	0	0	4596.0	1
848.3291015625	0.2	FACES	1	0.527275158481643	0	0	4604.0	1
849.798828125	0.2	SCRAMBLED	0	0.393965489656694	0	0	4612.0	1
850.89892578125	0.2	FACES	1	0.352769321136293	0	0	4620.0	1
851.96875	0.2	SCRAMBLED	0	0.457631472349021	0	0	4628.0	1
853.32861328125	0.2	FACES	1	0.371406329893944	0	0	4636.0	1
