COND	DIREC	ACC	RT	nameCOND	nameDIREC	outliers	bad_trials
0	0	0	NaN	RANDOM	NONE	1	0
1	0	0	NaN	COHERENT	RIGHT	1	0
1	180	0	NaN	COHERENT	LEFT	1	0
1	180	0	NaN	COHERENT	LEFT	1	0
0	0	1	1.00072322709002	RANDOM	NONE	0	0
0	0	0	NaN	RANDOM	NONE	1	1
0	0	0	NaN	RANDOM	NONE	1	0
1	0	0	NaN	COHERENT	RIGHT	1	0
1	0	1	0.704111075124274	COHERENT	RIGHT	0	0
0	0	0	NaN	RANDOM	NONE	1	0
1	180	0	NaN	COHERENT	LEFT	1	0
0	0	0	NaN	RANDOM	NONE	1	0
1	180	0	NaN	COHERENT	LEFT	1	0
0	0	0	NaN	RANDOM	NONE	1	0
1	0	0	NaN	COHERENT	RIGHT	1	0
0	0	0	NaN	RANDOM	NONE	1	1
0	0	0	NaN	RANDOM	NONE	1	0
1	0	0	NaN	COHERENT	RIGHT	1	1
0	0	0	NaN	RANDOM	NONE	1	0
1	0	1	0.774693330282389	COHERENT	RIGHT	0	0
0	0	0	NaN	RANDOM	NONE	1	0
0	0	1	1.14395116828655	RANDOM	NONE	0	0
1	180	0	NaN	COHERENT	LEFT	1	1
0	0	0	NaN	RANDOM	NONE	1	1
1	0	0	NaN	COHERENT	RIGHT	1	0
0	0	0	NaN	RANDOM	NONE	1	0
1	180	0	NaN	COHERENT	LEFT	1	0
1	0	0	NaN	COHERENT	RIGHT	1	0
0	0	0	NaN	RANDOM	NONE	1	0
1	180	0	NaN	COHERENT	LEFT	1	0
0	0	0	NaN	RANDOM	NONE	1	0
1	180	0	NaN	COHERENT	LEFT	1	0
1	0	0	NaN	COHERENT	RIGHT	1	0
0	0	0	NaN	RANDOM	NONE	1	0
0	0	0	NaN	RANDOM	NONE	1	0
0	0	0	NaN	RANDOM	NONE	1	0
1	180	1	1.03907358111246	COHERENT	LEFT	0	0
1	180	0	NaN	COHERENT	LEFT	1	0
0	0	0	NaN	RANDOM	NONE	1	0
1	0	0	NaN	COHERENT	RIGHT	1	0
0	0	0	NaN	RANDOM	NONE	1	0
0	0	0	NaN	RANDOM	NONE	1	0
1	0	1	NaN	COHERENT	RIGHT	1	0
1	0	1	1.12449678215307	COHERENT	RIGHT	0	0
1	0	0	NaN	COHERENT	RIGHT	1	0
1	180	0	NaN	COHERENT	LEFT	1	0
1	180	1	0.83513350271096	COHERENT	LEFT	0	0
0	0	1	0.834927340730246	RANDOM	NONE	0	0
1	180	1	0.80774655901223	COHERENT	LEFT	0	0
1	0	0	NaN	COHERENT	RIGHT	1	0
1	0	0	NaN	COHERENT	RIGHT	1	0
1	180	1	1.1351495911922	COHERENT	LEFT	0	0
1	180	1	1.19370804505616	COHERENT	LEFT	0	0
0	0	0	NaN	RANDOM	NONE	1	0
0	0	0	NaN	RANDOM	NONE	1	0
1	180	1	0.948801498613648	COHERENT	LEFT	0	0
0	0	0	NaN	RANDOM	NONE	1	0
1	180	1	0.883290888516058	COHERENT	LEFT	0	0
1	0	0	NaN	COHERENT	RIGHT	1	0
1	180	0	NaN	COHERENT	LEFT	1	0
1	0	1	1.08797230487016	COHERENT	RIGHT	0	0
0	0	0	NaN	RANDOM	NONE	1	0
0	0	0	NaN	RANDOM	NONE	1	0
0	0	0	NaN	RANDOM	NONE	1	0
0	0	0	NaN	RANDOM	NONE	1	0
1	180	0	NaN	COHERENT	LEFT	1	0
1	0	0	NaN	COHERENT	RIGHT	1	0
0	0	0	NaN	RANDOM	NONE	1	0
0	0	0	NaN	RANDOM	NONE	1	0
0	0	0	NaN	RANDOM	NONE	1	0
0	0	0	NaN	RANDOM	NONE	1	0
0	0	0	NaN	RANDOM	NONE	1	0
0	0	0	NaN	RANDOM	NONE	1	1
0	0	0	NaN	RANDOM	NONE	1	1
1	0	0	NaN	COHERENT	RIGHT	1	0
0	0	0	NaN	RANDOM	NONE	1	0
1	180	1	1.04910760236635	COHERENT	LEFT	0	0
1	0	1	1.04377093502444	COHERENT	RIGHT	0	0
1	180	1	0.958389087119031	COHERENT	LEFT	0	0
1	180	0	NaN	COHERENT	LEFT	1	0
1	180	0	NaN	COHERENT	LEFT	1	0
1	0	0	NaN	COHERENT	RIGHT	1	0
1	180	0	NaN	COHERENT	LEFT	1	0
0	0	0	NaN	RANDOM	NONE	1	0
1	180	0	NaN	COHERENT	LEFT	1	0
0	0	0	NaN	RANDOM	NONE	1	0
0	0	1	0.942204013427727	RANDOM	NONE	0	0
1	180	0	NaN	COHERENT	LEFT	1	0
0	0	0	NaN	RANDOM	NONE	1	0
0	0	0	NaN	RANDOM	NONE	1	0
1	180	1	0.963962704905498	COHERENT	LEFT	0	0
1	180	0	NaN	COHERENT	LEFT	1	0
0	0	0	NaN	RANDOM	NONE	1	0
0	0	1	0.834239731669186	RANDOM	NONE	0	0
1	180	0	NaN	COHERENT	LEFT	1	0
0	0	1	0.834172721480172	RANDOM	NONE	0	0
1	0	0	NaN	COHERENT	RIGHT	1	0
0	0	0	NaN	RANDOM	NONE	1	0
1	0	0	NaN	COHERENT	RIGHT	1	0
1	180	1	1.12909271523768	COHERENT	LEFT	0	0
1	180	0	NaN	COHERENT	LEFT	1	0
1	0	1	0.635473021004145	COHERENT	RIGHT	0	0
1	0	1	0.953556505436609	COHERENT	RIGHT	0	0
0	0	0	NaN	RANDOM	NONE	1	0
1	180	0	NaN	COHERENT	LEFT	1	0
0	0	0	NaN	RANDOM	NONE	1	0
1	0	1	0.882753297761155	COHERENT	RIGHT	0	0
1	0	0	NaN	COHERENT	RIGHT	1	0
0	0	0	NaN	RANDOM	NONE	1	0
0	0	0	NaN	RANDOM	NONE	1	0
0	0	0	NaN	RANDOM	NONE	1	0
0	0	0	NaN	RANDOM	NONE	1	0
0	0	0	NaN	RANDOM	NONE	1	0
1	0	1	0.979966971824979	COHERENT	RIGHT	0	0
0	0	1	0.922678391236332	RANDOM	NONE	0	0
0	0	0	NaN	RANDOM	NONE	1	1
1	0	0	NaN	COHERENT	RIGHT	1	0
0	0	0	NaN	RANDOM	NONE	1	0
1	0	0	NaN	COHERENT	RIGHT	1	0
1	0	0	NaN	COHERENT	RIGHT	1	0
0	0	0	NaN	RANDOM	NONE	1	0
1	0	0	NaN	COHERENT	RIGHT	1	0
0	0	1	0.669852266680209	RANDOM	NONE	0	0
0	0	0	NaN	RANDOM	NONE	1	0
1	180	0	NaN	COHERENT	LEFT	1	0
0	0	0	NaN	RANDOM	NONE	1	0
1	180	0	NaN	COHERENT	LEFT	1	0
1	0	1	0.904567227368716	COHERENT	RIGHT	0	0
0	0	0	NaN	RANDOM	NONE	1	0
0	0	0	NaN	RANDOM	NONE	1	0
1	0	0	NaN	COHERENT	RIGHT	1	1
1	0	0	NaN	COHERENT	RIGHT	1	0
0	0	0	NaN	RANDOM	NONE	1	0
0	0	0	NaN	RANDOM	NONE	1	0
0	0	1	0.704753407030694	RANDOM	NONE	0	0
1	0	0	NaN	COHERENT	RIGHT	1	0
0	0	1	0.788688800756063	RANDOM	NONE	0	0
0	0	1	0.753444459570346	RANDOM	NONE	0	0
0	0	1	0.978221688421399	RANDOM	NONE	0	0
0	0	1	0.933750164885168	RANDOM	NONE	0	0
0	0	0	NaN	RANDOM	NONE	1	0
1	180	0	NaN	COHERENT	LEFT	1	0
1	180	1	1.06308918784543	COHERENT	LEFT	0	0
0	0	0	NaN	RANDOM	NONE	1	0
0	0	1	0.827978202974009	RANDOM	NONE	0	0
0	0	0	NaN	RANDOM	NONE	1	0
0	0	0	NaN	RANDOM	NONE	1	0
1	0	1	0.779270548810018	COHERENT	RIGHT	0	0
1	180	0	NaN	COHERENT	LEFT	1	0
1	180	0	NaN	COHERENT	LEFT	1	0
0	0	0	NaN	RANDOM	NONE	1	1
1	0	0	NaN	COHERENT	RIGHT	1	1
0	0	0	NaN	RANDOM	NONE	1	1
1	0	0	NaN	COHERENT	RIGHT	1	1
0	0	0	NaN	RANDOM	NONE	1	1
0	0	0	NaN	RANDOM	NONE	1	1
0	0	0	NaN	RANDOM	NONE	1	1
0	0	0	NaN	RANDOM	NONE	1	1
0	0	0	NaN	RANDOM	NONE	1	1
0	0	1	0.76234081684197	RANDOM	NONE	0	0
1	180	1	1.10428053242322	COHERENT	LEFT	0	0
0	0	0	NaN	RANDOM	NONE	1	0
0	0	0	NaN	RANDOM	NONE	1	0
1	180	0	NaN	COHERENT	LEFT	1	0
0	0	0	NaN	RANDOM	NONE	1	0
1	180	0	NaN	COHERENT	LEFT	1	1
1	0	0	NaN	COHERENT	RIGHT	1	0
1	0	0	NaN	COHERENT	RIGHT	1	0
0	0	0	NaN	RANDOM	NONE	1	0
1	180	0	NaN	COHERENT	LEFT	1	0
0	0	0	NaN	RANDOM	NONE	1	0
1	0	0	NaN	COHERENT	RIGHT	1	0
0	0	1	0.70467371923769	RANDOM	NONE	0	0
0	0	1	0.979411270208402	RANDOM	NONE	0	0
1	0	0	NaN	COHERENT	RIGHT	1	0
0	0	0	NaN	RANDOM	NONE	1	0
1	180	0	NaN	COHERENT	LEFT	1	0
1	180	0	NaN	COHERENT	LEFT	1	0
0	0	0	NaN	RANDOM	NONE	1	0
1	180	0	NaN	COHERENT	LEFT	1	0
1	180	0	NaN	COHERENT	LEFT	1	0
1	180	0	NaN	COHERENT	LEFT	1	0
0	0	0	NaN	RANDOM	NONE	1	0
0	0	0	NaN	RANDOM	NONE	1	0
1	180	0	NaN	COHERENT	LEFT	1	0
1	0	0	NaN	COHERENT	RIGHT	1	0
0	0	0	NaN	RANDOM	NONE	1	0
0	0	0	NaN	RANDOM	NONE	1	0
0	0	0	NaN	RANDOM	NONE	1	0
1	180	1	0.968510644206617	COHERENT	LEFT	0	0
1	0	0	NaN	COHERENT	RIGHT	1	0
1	0	0	NaN	COHERENT	RIGHT	1	0
1	180	0	NaN	COHERENT	LEFT	1	0
0	0	1	0.75802016885973	RANDOM	NONE	0	0
1	0	0	NaN	COHERENT	RIGHT	1	0
0	0	1	0.968439106301048	RANDOM	NONE	0	0
0	0	0	NaN	RANDOM	NONE	1	0
0	0	0	NaN	RANDOM	NONE	1	0
1	0	0	NaN	COHERENT	RIGHT	1	0
0	0	1	0.834485737545037	RANDOM	NONE	0	0
1	180	0	NaN	COHERENT	LEFT	1	0
0	0	1	1.12283269578074	RANDOM	NONE	0	0
0	0	1	0.784091056584657	RANDOM	NONE	0	0
1	0	0	NaN	COHERENT	RIGHT	1	0
0	0	0	NaN	RANDOM	NONE	1	0
0	0	0	NaN	RANDOM	NONE	1	0
0	0	1	0.774145476706508	RANDOM	NONE	0	0
1	0	0	NaN	COHERENT	RIGHT	1	0
1	0	0	NaN	COHERENT	RIGHT	1	0
1	180	0	NaN	COHERENT	LEFT	1	0
0	0	0	NaN	RANDOM	NONE	1	0
1	180	0	NaN	COHERENT	LEFT	1	0
1	0	0	NaN	COHERENT	RIGHT	1	0
1	180	0	NaN	COHERENT	LEFT	1	0
1	0	0	NaN	COHERENT	RIGHT	1	0
1	180	0	NaN	COHERENT	LEFT	1	0
1	0	1	0.953058758579573	COHERENT	RIGHT	0	0
0	0	0	NaN	RANDOM	NONE	1	0
0	0	0	NaN	RANDOM	NONE	1	0
0	0	1	0.699087725694881	RANDOM	NONE	0	0
0	0	1	1.02026062134064	RANDOM	NONE	0	0
0	0	0	NaN	RANDOM	NONE	1	0
0	0	0	NaN	RANDOM	NONE	1	0
0	0	0	NaN	RANDOM	NONE	1	0
1	180	1	0.86867089514999	COHERENT	LEFT	0	0
0	0	0	NaN	RANDOM	NONE	1	0
1	180	0	NaN	COHERENT	LEFT	1	0
1	0	1	1.00471757770811	COHERENT	RIGHT	0	0
0	0	0	NaN	RANDOM	NONE	1	0
1	0	1	0.990251526669454	COHERENT	RIGHT	0	0
0	0	0	NaN	RANDOM	NONE	1	0
0	0	0	NaN	RANDOM	NONE	1	0
0	0	1	0.910311690953677	RANDOM	NONE	0	0
0	0	1	0.823397362273681	RANDOM	NONE	0	0
0	0	1	0.703228472448245	RANDOM	NONE	0	0
0	0	1	0.780041467836782	RANDOM	NONE	0	0
1	0	1	0.949827780794294	COHERENT	RIGHT	0	0
1	180	0	NaN	COHERENT	LEFT	1	0
1	180	0	NaN	COHERENT	LEFT	1	0
0	0	1	0.738240390904139	RANDOM	NONE	0	0
0	0	0	NaN	RANDOM	NONE	1	0
1	180	1	1.1196225454878	COHERENT	LEFT	0	0
1	180	0	NaN	COHERENT	LEFT	1	0
1	180	0	NaN	COHERENT	LEFT	1	0
1	180	0	NaN	COHERENT	LEFT	1	0
1	180	0	NaN	COHERENT	LEFT	1	0
1	180	0	NaN	COHERENT	LEFT	1	0
0	0	1	0.849333927772022	RANDOM	NONE	0	0
1	0	0	NaN	COHERENT	RIGHT	1	0
0	0	1	0.872873218834684	RANDOM	NONE	0	0
1	0	0	NaN	COHERENT	RIGHT	1	0
1	180	1	0.994340959314286	COHERENT	LEFT	0	0
0	0	0	NaN	RANDOM	NONE	1	0
0	0	0	NaN	RANDOM	NONE	1	0
0	0	1	0.714013490781326	RANDOM	NONE	0	0
1	0	0	NaN	COHERENT	RIGHT	1	0
0	0	0	NaN	RANDOM	NONE	1	0
1	180	1	0.933980776527278	COHERENT	LEFT	0	0
0	0	0	NaN	RANDOM	NONE	1	0
0	0	0	NaN	RANDOM	NONE	1	0
1	180	1	0.854552270815475	COHERENT	LEFT	0	0
1	0	0	NaN	COHERENT	RIGHT	1	0
1	0	1	1.15905321242917	COHERENT	RIGHT	0	0
1	180	0	NaN	COHERENT	LEFT	1	0
0	0	0	NaN	RANDOM	NONE	1	0
0	0	0	NaN	RANDOM	NONE	1	0
0	0	0	NaN	RANDOM	NONE	1	0
1	180	0	NaN	COHERENT	LEFT	1	0
0	0	1	0.718729559251187	RANDOM	NONE	0	0
0	0	0	NaN	RANDOM	NONE	1	0
0	0	0	NaN	RANDOM	NONE	1	0
0	0	0	NaN	RANDOM	NONE	1	0
0	0	0	NaN	RANDOM	NONE	1	0
0	0	0	NaN	RANDOM	NONE	1	0
0	0	0	NaN	RANDOM	NONE	1	0
1	0	0	NaN	COHERENT	RIGHT	1	0
1	0	0	NaN	COHERENT	RIGHT	1	0
1	0	0	NaN	COHERENT	RIGHT	1	0
1	180	1	0.898497975658756	COHERENT	LEFT	0	0
1	180	0	NaN	COHERENT	LEFT	1	0
0	0	1	0.80820416012466	RANDOM	NONE	0	0
1	0	1	0.90958725647306	COHERENT	RIGHT	0	0
0	0	1	0.844727731864623	RANDOM	NONE	0	0
1	0	1	0.768558577621661	COHERENT	RIGHT	0	0
1	0	1	0.714297227619682	COHERENT	RIGHT	0	0
1	180	0	NaN	COHERENT	LEFT	1	0
1	0	0	NaN	COHERENT	RIGHT	1	0
0	0	0	NaN	RANDOM	NONE	1	0
1	0	0	NaN	COHERENT	RIGHT	1	0
0	0	0	NaN	RANDOM	NONE	1	0
1	180	0	NaN	COHERENT	LEFT	1	0
0	0	0	NaN	RANDOM	NONE	1	0
1	0	0	NaN	COHERENT	RIGHT	1	0
1	0	0	NaN	COHERENT	RIGHT	1	0
1	0	0	NaN	COHERENT	RIGHT	1	0
0	0	0	NaN	RANDOM	NONE	1	0
1	0	0	NaN	COHERENT	RIGHT	1	0
0	0	1	0.878367752523445	RANDOM	NONE	0	0
1	180	0	NaN	COHERENT	LEFT	1	0
1	180	1	0.979954897917196	COHERENT	LEFT	0	0
0	0	0	NaN	RANDOM	NONE	1	0
0	0	0	NaN	RANDOM	NONE	1	0
0	0	1	0.689555375319287	RANDOM	NONE	0	0
1	0	0	NaN	COHERENT	RIGHT	1	0
1	0	0	NaN	COHERENT	RIGHT	1	0
0	0	0	NaN	RANDOM	NONE	1	0
1	180	1	1.01975261166172	COHERENT	LEFT	0	1
1	180	1	0.918542172198613	COHERENT	LEFT	0	0
1	0	0	NaN	COHERENT	RIGHT	1	0
0	0	1	0.81402982074178	RANDOM	NONE	0	0
0	0	1	0.893004045664384	RANDOM	NONE	0	0
0	0	1	0.917496873612436	RANDOM	NONE	0	0
0	0	0	NaN	RANDOM	NONE	1	0
1	180	0	NaN	COHERENT	LEFT	1	0
1	0	1	1.04827510640825	COHERENT	RIGHT	0	0
1	0	1	1.12957114384335	COHERENT	RIGHT	0	0
1	0	0	NaN	COHERENT	RIGHT	1	0
1	0	1	1.05807459199968	COHERENT	RIGHT	0	0
1	0	1	0.745207035828571	COHERENT	RIGHT	0	0
1	0	1	0.749024201847533	COHERENT	RIGHT	0	0
0	0	1	0.892779772823815	RANDOM	NONE	0	0
0	0	0	NaN	RANDOM	NONE	1	0
1	0	1	0.933050180066857	COHERENT	RIGHT	0	0
0	0	0	NaN	RANDOM	NONE	1	0
1	0	0	NaN	COHERENT	RIGHT	1	0
0	0	1	0.659691469390964	RANDOM	NONE	0	0
1	0	0	NaN	COHERENT	RIGHT	1	0
0	0	0	NaN	RANDOM	NONE	1	0
1	180	1	0.938121523280643	COHERENT	LEFT	0	0
1	0	0	NaN	COHERENT	RIGHT	1	0
1	180	0	NaN	COHERENT	LEFT	1	0
1	180	0	NaN	COHERENT	LEFT	1	0
0	0	0	NaN	RANDOM	NONE	1	0
1	180	0	NaN	COHERENT	LEFT	1	0
1	180	1	0.79073985588002	COHERENT	LEFT	0	0
1	0	0	NaN	COHERENT	RIGHT	1	0
1	0	0	NaN	COHERENT	RIGHT	1	0
0	0	1	1.01006541341485	RANDOM	NONE	0	0
1	0	0	NaN	COHERENT	RIGHT	1	0
1	180	0	NaN	COHERENT	LEFT	1	0
0	0	0	NaN	RANDOM	NONE	1	0
0	0	0	NaN	RANDOM	NONE	1	0
0	0	0	NaN	RANDOM	NONE	1	0
1	0	0	NaN	COHERENT	RIGHT	1	0
0	0	1	0.723700387180543	RANDOM	NONE	0	0
0	0	0	NaN	RANDOM	NONE	1	0
0	0	1	1.10830023824929	RANDOM	NONE	0	0
0	0	0	NaN	RANDOM	NONE	1	0
0	0	0	NaN	RANDOM	NONE	1	0
1	180	0	NaN	COHERENT	LEFT	1	0
1	180	0	NaN	COHERENT	LEFT	1	0
0	0	0	NaN	RANDOM	NONE	1	0
1	180	0	NaN	COHERENT	LEFT	1	0
0	0	0	NaN	RANDOM	NONE	1	0
1	180	0	NaN	COHERENT	LEFT	1	0
1	0	0	NaN	COHERENT	RIGHT	1	0
1	180	1	0.994062353886875	COHERENT	LEFT	0	0
0	0	0	NaN	RANDOM	NONE	1	0
0	0	0	NaN	RANDOM	NONE	1	0
1	180	0	NaN	COHERENT	LEFT	1	0
1	180	0	NaN	COHERENT	LEFT	1	0
0	0	0	NaN	RANDOM	NONE	1	0
0	0	0	NaN	RANDOM	NONE	1	0
1	180	1	0.918564810776843	COHERENT	LEFT	0	0
0	0	0	NaN	RANDOM	NONE	1	0
0	0	0	NaN	RANDOM	NONE	1	1
0	0	1	0.949636107504375	RANDOM	NONE	0	0
1	180	0	NaN	COHERENT	LEFT	1	0
0	0	0	NaN	RANDOM	NONE	1	0
0	0	0	NaN	RANDOM	NONE	1	0
1	180	0	NaN	COHERENT	LEFT	1	0
0	0	0	NaN	RANDOM	NONE	1	0
0	0	1	0.783722198694704	RANDOM	NONE	0	1
0	0	1	1.02849080073884	RANDOM	NONE	0	0
0	0	0	NaN	RANDOM	NONE	1	0
0	0	0	NaN	RANDOM	NONE	1	0
0	0	0	NaN	RANDOM	NONE	1	0
0	0	1	0.923610798782647	RANDOM	NONE	0	0
1	180	1	1.11933458278236	COHERENT	LEFT	0	0
0	0	0	NaN	RANDOM	NONE	1	0
1	0	1	0.820940623841125	COHERENT	RIGHT	0	0
1	180	1	0.682794892374659	COHERENT	LEFT	0	0
0	0	0	NaN	RANDOM	NONE	1	0
0	0	0	NaN	RANDOM	NONE	1	0
0	0	0	NaN	RANDOM	NONE	1	0
0	0	1	0.808881808212391	RANDOM	NONE	0	0
1	0	1	1.06961060741105	COHERENT	RIGHT	0	0
1	0	0	NaN	COHERENT	RIGHT	1	0
0	0	0	NaN	RANDOM	NONE	1	0
1	0	1	0.934972346222821	COHERENT	RIGHT	0	0
0	0	0	NaN	RANDOM	NONE	1	0
0	0	1	0.859395719015083	RANDOM	NONE	0	0
1	0	1	0.988278348252607	COHERENT	RIGHT	0	0
1	180	0	NaN	COHERENT	LEFT	1	0
1	180	1	1.07456241893487	COHERENT	LEFT	0	0
1	180	0	NaN	COHERENT	LEFT	1	0
0	0	0	NaN	RANDOM	NONE	1	0
1	0	0	NaN	COHERENT	RIGHT	1	0
0	0	1	0.838858303332017	RANDOM	NONE	0	0
1	0	0	NaN	COHERENT	RIGHT	1	0
0	0	0	NaN	RANDOM	NONE	1	0
0	0	1	0.699297509847383	RANDOM	NONE	0	0
0	0	0	NaN	RANDOM	NONE	1	0
1	180	0	NaN	COHERENT	LEFT	1	0
0	0	0	NaN	RANDOM	NONE	1	0
1	180	1	1.09832839762021	COHERENT	LEFT	0	0
0	0	0	NaN	RANDOM	NONE	1	0
1	0	0	NaN	COHERENT	RIGHT	1	0
1	180	1	1.07364963148939	COHERENT	LEFT	0	0
0	0	0	NaN	RANDOM	NONE	1	0
0	0	0	NaN	RANDOM	NONE	1	0
0	0	1	1.0180411352012	RANDOM	NONE	0	0
1	180	1	0.824797030060836	COHERENT	LEFT	0	0
0	0	0	NaN	RANDOM	NONE	1	0
1	0	1	0.864322779027134	COHERENT	RIGHT	0	0
1	180	0	NaN	COHERENT	LEFT	1	0
1	0	1	0.749001261421654	COHERENT	RIGHT	0	0
0	0	1	1.09465943882242	RANDOM	NONE	0	0
0	0	1	0.758494975291796	RANDOM	NONE	0	0
1	180	0	NaN	COHERENT	LEFT	1	0
0	0	0	NaN	RANDOM	NONE	1	0
1	0	0	NaN	COHERENT	RIGHT	1	0
1	0	0	NaN	COHERENT	RIGHT	1	0
1	180	0	NaN	COHERENT	LEFT	1	0
0	0	0	NaN	RANDOM	NONE	1	0
1	180	0	NaN	COHERENT	LEFT	1	0
0	0	1	1.13250057577443	RANDOM	NONE	0	0
1	180	0	NaN	COHERENT	LEFT	1	0
1	0	0	NaN	COHERENT	RIGHT	1	0
1	0	0	NaN	COHERENT	RIGHT	1	0
1	180	1	0.939875560266955	COHERENT	LEFT	0	0
0	0	0	NaN	RANDOM	NONE	1	0
1	0	0	NaN	COHERENT	RIGHT	1	0
1	0	0	NaN	COHERENT	RIGHT	1	0
1	0	0	NaN	COHERENT	RIGHT	1	0
0	0	0	NaN	RANDOM	NONE	1	0
1	0	0	NaN	COHERENT	RIGHT	1	0
0	0	1	1.08458889399753	RANDOM	NONE	0	0
0	0	0	NaN	RANDOM	NONE	1	0
0	0	0	NaN	RANDOM	NONE	1	0
1	180	0	NaN	COHERENT	LEFT	1	0
1	180	0	NaN	COHERENT	LEFT	1	0
0	0	1	1.13418156561784	RANDOM	NONE	0	0
0	0	0	NaN	RANDOM	NONE	1	0
0	0	1	0.995677842779514	RANDOM	NONE	0	0
1	180	0	NaN	COHERENT	LEFT	1	0
0	0	0	NaN	RANDOM	NONE	1	0
1	0	0	NaN	COHERENT	RIGHT	1	0
1	180	1	0.908907193604136	COHERENT	LEFT	0	0
0	0	1	1.00764761333539	RANDOM	NONE	0	0
0	0	0	NaN	RANDOM	NONE	1	1
0	0	1	0.900295176866166	RANDOM	NONE	0	0
1	0	0	NaN	COHERENT	RIGHT	1	0
0	0	0	NaN	RANDOM	NONE	1	0
1	180	0	NaN	COHERENT	LEFT	1	0
0	0	1	0.858080568584228	RANDOM	NONE	0	0
0	0	1	0.773283097826607	RANDOM	NONE	0	0
1	180	0	NaN	COHERENT	LEFT	1	0
1	180	0	NaN	COHERENT	LEFT	1	0
1	0	1	0.929596438680164	COHERENT	RIGHT	0	0
0	0	1	0.839074426286061	RANDOM	NONE	0	0
1	180	1	0.979098254142627	COHERENT	LEFT	0	0
1	0	0	NaN	COHERENT	RIGHT	1	0
0	0	1	0.827807055327867	RANDOM	NONE	0	0
1	0	0	NaN	COHERENT	RIGHT	1	0
1	0	1	0.789985538476685	COHERENT	RIGHT	0	0
1	0	0	NaN	COHERENT	RIGHT	1	0
0	0	0	NaN	RANDOM	NONE	1	0
0	0	0	NaN	RANDOM	NONE	1	0
1	0	0	NaN	COHERENT	RIGHT	1	0
0	0	0	NaN	RANDOM	NONE	1	0
0	0	0	NaN	RANDOM	NONE	1	0
0	0	0	NaN	RANDOM	NONE	1	0
0	0	1	0.824161036955047	RANDOM	NONE	0	0
1	180	0	NaN	COHERENT	LEFT	1	0
1	180	0	NaN	COHERENT	LEFT	1	0
1	180	0	NaN	COHERENT	LEFT	1	0
1	0	1	1.19822610143456	COHERENT	RIGHT	0	0
1	0	0	NaN	COHERENT	RIGHT	1	0
1	180	0	NaN	COHERENT	LEFT	1	0
0	0	0	NaN	RANDOM	NONE	1	0
1	0	0	NaN	COHERENT	RIGHT	1	0
0	0	1	1.19806129259086	RANDOM	NONE	0	0
0	0	0	NaN	RANDOM	NONE	1	0
1	0	0	NaN	COHERENT	RIGHT	1	0
0	0	0	NaN	RANDOM	NONE	1	0
1	0	0	NaN	COHERENT	RIGHT	1	0
1	180	0	NaN	COHERENT	LEFT	1	0
1	0	0	NaN	COHERENT	RIGHT	1	0
0	0	1	1.15436280101403	RANDOM	NONE	0	0
1	180	1	0.909427277191753	COHERENT	LEFT	0	0
0	0	1	0.93935849515583	RANDOM	NONE	0	0
0	0	0	NaN	RANDOM	NONE	1	0
0	0	1	0.855590928752463	RANDOM	NONE	0	0
1	180	1	0.878831390591586	COHERENT	LEFT	0	0
0	0	0	NaN	RANDOM	NONE	1	0
0	0	1	1.14392943525218	RANDOM	NONE	0	0
0	0	1	1.16363344943329	RANDOM	NONE	0	0
1	180	1	0.718843355833997	COHERENT	LEFT	0	0
0	0	1	0.684570964243903	RANDOM	NONE	0	0
0	0	0	NaN	RANDOM	NONE	1	0
0	0	1	0.778992245231166	RANDOM	NONE	0	0
1	180	1	0.955033144387016	COHERENT	LEFT	0	0
1	0	1	0.942806803284839	COHERENT	RIGHT	0	0
1	0	1	0.718593425938707	COHERENT	RIGHT	0	0
0	0	1	0.914335018951533	RANDOM	NONE	0	0
0	0	1	0.818130119902889	RANDOM	NONE	0	0
1	180	1	0.749981662752361	COHERENT	LEFT	0	0
1	180	1	0.750820799359644	COHERENT	LEFT	0	0
1	180	0	NaN	COHERENT	LEFT	1	0
0	0	1	1.0842791982559	RANDOM	NONE	0	0
0	0	0	NaN	RANDOM	NONE	1	0
0	0	0	NaN	RANDOM	NONE	1	0
1	180	1	0.91455325483912	COHERENT	LEFT	0	0
0	0	1	0.644545355484297	RANDOM	NONE	0	0
1	0	0	NaN	COHERENT	RIGHT	1	0
0	0	1	0.96988857895758	RANDOM	NONE	0	0
1	0	1	0.693831953537483	COHERENT	RIGHT	0	0
1	180	1	0.622614308969787	COHERENT	LEFT	0	0
0	0	1	0.833462775689441	RANDOM	NONE	0	0
0	0	1	1.19813675451496	RANDOM	NONE	0	0
0	0	1	0.879714898809652	RANDOM	NONE	0	0
1	0	1	0.838850757138971	COHERENT	RIGHT	0	0
1	0	1	0.727647045861886	COHERENT	RIGHT	0	0
0	0	0	NaN	RANDOM	NONE	1	0
1	0	1	0.914112557196859	COHERENT	RIGHT	0	0
0	0	1	0.940047915304604	RANDOM	NONE	0	0
1	180	0	NaN	COHERENT	LEFT	1	0
0	0	1	0.850539809335714	RANDOM	NONE	0	0
1	0	1	0.669407041322302	COHERENT	RIGHT	0	0
1	180	1	0.579108094378171	COHERENT	LEFT	0	0
1	180	0	NaN	COHERENT	LEFT	1	0
0	0	1	1.0096138492554	RANDOM	NONE	0	0
1	180	1	0.674514002564138	COHERENT	LEFT	0	0
0	0	1	0.809334579763345	RANDOM	NONE	0	0
1	180	1	0.678051959459481	COHERENT	LEFT	0	0
1	180	1	1.01785187669248	COHERENT	LEFT	0	0
1	0	0	NaN	COHERENT	RIGHT	1	0
0	0	1	0.709353565983292	RANDOM	NONE	0	0
1	0	1	0.61932748936033	COHERENT	RIGHT	0	0
1	0	1	1.10795341524044	COHERENT	RIGHT	0	0
1	180	1	1.14481867857739	COHERENT	LEFT	0	0
0	0	0	NaN	RANDOM	NONE	1	0
1	180	1	1.10905304641255	COHERENT	LEFT	0	0
0	0	0	NaN	RANDOM	NONE	1	0
0	0	0	NaN	RANDOM	NONE	1	0
1	180	0	NaN	COHERENT	LEFT	1	0
1	0	1	0.738343019123022	COHERENT	RIGHT	0	0
0	0	1	0.7190045425059	RANDOM	NONE	0	0
0	0	1	0.779884205185226	RANDOM	NONE	0	0
0	0	0	NaN	RANDOM	NONE	1	0
0	0	1	0.719177501238846	RANDOM	NONE	0	0
0	0	1	0.810320112504996	RANDOM	NONE	0	0
1	0	1	0.7681568183325	COHERENT	RIGHT	0	0
1	180	1	1.04798321968337	COHERENT	LEFT	0	0
0	0	0	NaN	RANDOM	NONE	1	0
1	0	1	0.574331052672278	COHERENT	RIGHT	0	0
0	0	0	NaN	RANDOM	NONE	1	0
1	180	1	0.63406701441545	COHERENT	LEFT	0	0
0	0	1	0.707882058443829	RANDOM	NONE	0	0
0	0	0	NaN	RANDOM	NONE	1	0
0	0	1	0.60956694212291	RANDOM	NONE	0	0
0	0	0	NaN	RANDOM	NONE	1	0
0	0	1	0.623084889533857	RANDOM	NONE	0	0
0	0	1	0.650049850148207	RANDOM	NONE	0	0
1	0	1	0.809828402600942	COHERENT	RIGHT	0	0
1	180	0	NaN	COHERENT	LEFT	1	0
1	180	1	0.898315357800129	COHERENT	LEFT	0	0
0	0	1	1.17396539436868	RANDOM	NONE	0	0
1	0	1	0.649879608045012	COHERENT	RIGHT	0	0
1	0	1	0.864564860882638	COHERENT	RIGHT	0	0
0	0	0	NaN	RANDOM	NONE	1	0
1	0	1	0.898293021069549	COHERENT	RIGHT	0	0
1	0	0	NaN	COHERENT	RIGHT	1	0
1	180	1	0.689581937916046	COHERENT	LEFT	0	0
0	0	1	0.669624371666032	RANDOM	NONE	0	0
0	0	0	NaN	RANDOM	NONE	1	0
0	0	0	NaN	RANDOM	NONE	1	0
1	180	1	0.853030354710427	COHERENT	LEFT	0	0
0	0	1	1.16980593305834	RANDOM	NONE	0	0
1	0	1	0.763214062239058	COHERENT	RIGHT	0	0
0	0	0	NaN	RANDOM	NONE	1	0
1	0	1	0.974078828734491	COHERENT	RIGHT	0	0
0	0	0	NaN	RANDOM	NONE	1	0
1	0	1	0.719647478107618	COHERENT	RIGHT	0	0
0	0	0	NaN	RANDOM	NONE	1	0
1	180	1	0.728100722954878	COHERENT	LEFT	0	0
1	180	1	0.634906151021823	COHERENT	LEFT	0	0
1	180	0	NaN	COHERENT	LEFT	1	0
1	0	1	0.799125486842968	COHERENT	RIGHT	0	0
0	0	1	1.04388986301819	RANDOM	NONE	0	0
1	0	0	NaN	COHERENT	RIGHT	1	0
0	0	1	NaN	RANDOM	NONE	1	0
0	0	1	0.893798206964675	RANDOM	NONE	0	0
0	0	1	0.813599989616705	RANDOM	NONE	0	0
0	0	1	0.899303607170623	RANDOM	NONE	0	0
1	180	1	0.779057444334285	COHERENT	LEFT	0	0
1	180	0	NaN	COHERENT	LEFT	1	0
0	0	1	1.08960831940567	RANDOM	NONE	0	0
0	0	1	0.818365561109204	RANDOM	NONE	0	0
