onset	duration	trial_type	trial_type_id	response_time	bad_epoch	outliers	direction	name_direction	event_num	response_accuracy
26.083984375	0.2	COHERENT	1	0.610123007527363	0	0	180	LEFT	1.0	1
27.32373046875	0.2	COHERENT	1	0.812921827196078	0	0	0	RIGHT	5.0	1
29.00341796875	0.2	COHERENT	1	n/a	0	1	0	RIGHT	8.0	0
30.24365234375	0.2	RANDOM	0	0.843516448091577	0	0	0	NONE	12.0	1
31.8232421875	0.2	COHERENT	1	0.509373468140438	0	0	180	LEFT	15.0	1
32.943359375	0.2	RANDOM	0	0.828052368751742	0	0	0	NONE	19.0	1
34.38330078125	0.2	COHERENT	1	0.618214845419971	0	0	180	LEFT	23.0	1
35.89306640625	0.2	RANDOM	0	0.569658988556512	0	0	0	NONE	26.0	1
37.3330078125	0.2	RANDOM	0	0.604658722933891	0	0	0	NONE	30.0	1
38.802734375	0.2	RANDOM	0	0.570072213193271	0	0	0	NONE	34.0	1
40.08251953125	0.2	RANDOM	0	0.543360817248868	0	0	0	NONE	38.0	1
41.3525390625	0.2	RANDOM	0	0.504235778915245	0	0	0	NONE	42.0	1
42.58251953125	0.2	RANDOM	0	0.684935381205833	0	0	0	NONE	46.0	1
43.87255859375	0.2	RANDOM	0	0.667899599392513	0	0	0	NONE	50.0	1
45.33203125	0.2	RANDOM	0	0.698690117139449	0	0	0	NONE	54.0	1
46.7421875	0.2	RANDOM	0	0.648402882248774	0	0	0	NONE	58.0	1
48.171875	0.2	RANDOM	0	0.504995520633202	0	0	0	NONE	62.0	1
49.32177734375	0.2	RANDOM	0	0.618125801396673	0	0	0	NONE	66.0	1
50.66162109375	0.2	RANDOM	0	0.505526766331059	0	0	0	NONE	70.0	1
51.82177734375	0.2	RANDOM	0	0.517818765530137	0	0	0	NONE	74.0	1
53.01171875	0.2	RANDOM	0	0.573410609459643	0	0	0	NONE	78.0	1
54.21142578125	0.2	COHERENT	1	0.573868205186955	0	0	180	LEFT	82.0	1
55.611328125	0.2	RANDOM	0	0.583267330080162	0	0	0	NONE	86.0	1
56.79150390625	0.2	COHERENT	1	0.538206526594877	0	0	0	RIGHT	90.0	1
58.111328125	0.2	RANDOM	0	0.684957113983728	0	0	0	NONE	94.0	1
59.60107421875	0.2	COHERENT	1	0.68857592346194	0	0	180	LEFT	98.0	1
61.0009765625	0.2	RANDOM	0	0.598630593473899	0	0	0	NONE	102.0	1
62.3310546875	0.2	RANDOM	0	0.609463478064754	0	0	0	NONE	106.0	1
63.630859375	0.2	COHERENT	1	0.623219119532223	0	0	180	LEFT	110.0	1
65.07080078125	0.2	RANDOM	0	0.584101627301607	0	0	0	NONE	114.0	1
66.49072265625	0.2	COHERENT	1	0.634910750723066	0	0	180	LEFT	118.0	1
67.970703125	0.2	RANDOM	0	0.619869253188881	0	0	0	NONE	122.0	1
n/a	0.2	RANDOM	0	0.802324984726511	1	0	0	NONE	n/a	1
70.8203125	0.2	RANDOM	0	0.789392774092448	0	0	0	NONE	125.0	1
72.3603515625	0.2	COHERENT	1	0.559153001176128	0	0	180	LEFT	128.0	1
73.7900390625	0.2	COHERENT	1	n/a	0	1	180	LEFT	132.0	0
75.02978515625	0.2	RANDOM	0	0.769630434099781	0	0	0	NONE	136.0	1
76.48974609375	0.2	RANDOM	0	0.838549300808154	0	0	0	NONE	140.0	1
78.0595703125	0.2	RANDOM	0	0.6744381473045	0	0	0	NONE	143.0	1
79.4296875	0.2	RANDOM	0	0.758232497265453	0	0	0	NONE	147.0	1
80.8095703125	0.2	COHERENT	1	0.633076745684775	0	0	0	RIGHT	151.0	1
82.16943359375	0.2	COHERENT	1	0.72485698624314	0	0	0	RIGHT	155.0	1
83.619140625	0.2	COHERENT	1	0.674404642604713	0	0	0	RIGHT	159.0	1
84.91943359375	0.2	RANDOM	0	0.723337502807226	0	0	0	NONE	163.0	1
86.34912109375	0.2	COHERENT	1	0.598277435821728	0	0	180	LEFT	167.0	1
87.56884765625	0.2	COHERENT	1	n/a	0	1	0	RIGHT	171.0	0
88.88916015625	0.2	RANDOM	0	0.997965268605185	0	0	0	NONE	175.0	1
90.56884765625	0.2	RANDOM	0	1.12780262290471	0	0	0	NONE	178.0	1
92.60888671875	0.2	RANDOM	0	1.1994232965726	0	0	0	NONE	180.0	1
94.57861328125	0.2	COHERENT	1	0.614294493638226	0	0	0	RIGHT	182.0	1
95.88818359375	0.2	RANDOM	0	n/a	0	1	0	NONE	186.0	0
97.828125	0.2	RANDOM	0	0.844762460730635	0	0	0	NONE	187.0	1
99.30810546875	0.2	COHERENT	1	0.538588963128859	0	0	180	LEFT	191.0	1
100.7080078125	0.2	COHERENT	1	0.64961629572008	0	0	0	RIGHT	195.0	1
102.1279296875	0.2	COHERENT	1	0.614267931353425	0	0	180	LEFT	199.0	1
n/a	0.2	COHERENT	1	0.559004795700275	1	0	0	RIGHT	n/a	1
n/a	0.2	COHERENT	1	n/a	1	1	0	RIGHT	n/a	0
106.54736328125	0.2	COHERENT	1	0.808677294799963	0	0	0	RIGHT	201.0	1
108.08740234375	0.2	RANDOM	0	0.644652166878586	0	0	0	NONE	204.0	1
109.33740234375	0.2	COHERENT	1	0.79839437024475	0	0	0	RIGHT	208.0	1
110.83740234375	0.2	RANDOM	0	0.718161177530419	0	0	0	NONE	212.0	1
112.4072265625	0.2	COHERENT	1	0.889084349743825	0	0	180	LEFT	215.0	1
113.93701171875	0.2	COHERENT	1	0.638506921890439	0	0	0	RIGHT	218.0	1
115.48681640625	0.2	COHERENT	1	0.618646784393604	0	0	0	RIGHT	221.0	1
116.806640625	0.2	RANDOM	0	0.788393368121433	0	0	0	NONE	225.0	1
118.3466796875	0.2	COHERENT	1	0.729211993596437	0	0	180	LEFT	228.0	1
119.94677734375	0.2	COHERENT	1	0.703943714518573	0	0	180	LEFT	231.0	1
121.32666015625	0.2	COHERENT	1	0.712963723162829	0	0	180	LEFT	235.0	1
122.91650390625	0.2	RANDOM	0	1.03466257446507	0	0	0	NONE	238.0	1
124.59619140625	0.2	RANDOM	0	0.808433706572941	0	0	0	NONE	240.0	1
126.13623046875	0.2	COHERENT	1	0.654053706525701	0	0	0	RIGHT	243.0	1
127.49609375	0.2	RANDOM	0	n/a	0	1	0	NONE	247.0	0
128.8857421875	0.2	RANDOM	0	1.04985529591613	0	0	0	NONE	251.0	1
130.70556640625	0.2	COHERENT	1	0.694741995696859	0	0	180	LEFT	253.0	1
132.005859375	0.2	COHERENT	1	n/a	0	1	180	LEFT	257.0	0
133.95556640625	0.2	RANDOM	0	n/a	0	1	0	NONE	258.0	0
135.0751953125	0.2	RANDOM	0	n/a	0	1	0	NONE	262.0	0
136.97509765625	0.2	RANDOM	0	0.768620161739818	0	0	0	NONE	263.0	1
138.4453125	0.2	RANDOM	0	0.758621272526398	0	0	0	NONE	267.0	1
140.10498046875	0.2	COHERENT	1	0.639391023396456	0	0	0	RIGHT	270.0	1
141.625	0.2	COHERENT	1	0.753313343201626	0	0	180	LEFT	273.0	1
142.99462890625	0.2	RANDOM	0	0.642826915322075	0	0	0	NONE	277.0	1
144.31494140625	0.2	COHERENT	1	0.913866659744599	0	0	180	LEFT	281.0	1
146.0146484375	0.2	COHERENT	1	0.974632716041924	0	0	180	LEFT	284.0	1
147.66455078125	0.2	COHERENT	1	0.673420932528643	0	0	180	LEFT	287.0	1
149.1142578125	0.2	RANDOM	0	0.674302015594549	0	0	0	NONE	291.0	1
150.68408203125	0.2	RANDOM	0	0.569105708234929	0	0	0	NONE	294.0	1
151.93408203125	0.2	RANDOM	0	0.702664197178819	0	0	0	NONE	298.0	1
153.25390625	0.2	RANDOM	0	0.923715532417191	0	0	0	NONE	302.0	1
154.90380859375	0.2	COHERENT	1	0.744370304813856	0	0	180	LEFT	305.0	1
156.37353515625	0.2	RANDOM	0	0.794357506622873	0	0	0	NONE	309.0	1
158.0234375	0.2	COHERENT	1	n/a	0	1	0	RIGHT	312.0	0
160.0234375	0.2	RANDOM	0	n/a	0	1	0	NONE	313.0	0
161.8232421875	0.2	COHERENT	1	n/a	0	1	180	LEFT	314.0	1
162.72314453125	0.2	RANDOM	0	n/a	0	1	0	NONE	317.0	0
164.73291015625	0.2	RANDOM	0	0.900071476694393	0	0	0	NONE	318.0	1
166.462890625	0.2	COHERENT	1	0.615118226315644	0	0	0	RIGHT	321.0	1
167.74267578125	0.2	COHERENT	1	0.583024949230094	0	0	180	LEFT	325.0	1
169.03271484375	0.2	COHERENT	1	0.557875898589373	0	0	0	RIGHT	329.0	1
170.20263671875	0.2	RANDOM	0	0.608623445804369	0	0	0	NONE	333.0	1
171.482421875	0.2	COHERENT	1	0.593452155288105	0	0	180	LEFT	337.0	1
172.87255859375	0.2	COHERENT	1	0.879210725850498	0	0	0	RIGHT	341.0	1
174.45263671875	0.2	RANDOM	0	0.558048855285961	0	0	0	NONE	344.0	1
175.732421875	0.2	COHERENT	1	0.43488829351827	0	0	180	LEFT	348.0	1
177.02197265625	0.2	COHERENT	1	0.430278227860981	0	0	180	LEFT	352.0	1
178.22216796875	0.2	COHERENT	1	0.543639721240652	0	0	180	LEFT	356.0	1
179.44189453125	0.2	RANDOM	0	0.543414243663392	0	0	0	NONE	360.0	1
180.7919921875	0.2	COHERENT	1	0.569319715735219	0	0	0	RIGHT	364.0	1
181.9619140625	0.2	COHERENT	1	0.55807179544172	0	0	180	LEFT	368.0	1
183.1416015625	0.2	RANDOM	0	0.642944030850231	0	0	0	NONE	372.0	1
184.6416015625	0.2	COHERENT	1	0.529828238606569	0	0	180	LEFT	376.0	1
185.83154296875	0.2	COHERENT	1	0.608611975727399	0	0	0	RIGHT	380.0	1
187.0615234375	0.2	RANDOM	0	0.683445780339753	0	0	0	NONE	384.0	1
188.611328125	0.2	COHERENT	1	0.534275308424185	0	0	0	RIGHT	387.0	1
189.93115234375	0.2	RANDOM	0	0.594092366723089	0	0	0	NONE	391.0	1
191.2509765625	0.2	RANDOM	0	0.794866415854813	0	0	0	NONE	395.0	1
192.77099609375	0.2	RANDOM	0	0.654797148659782	0	0	0	NONE	398.0	1
n/a	0.2	RANDOM	0	0.597457928963195	1	0	0	NONE	n/a	1
195.720703125	0.2	COHERENT	1	0.679197022126573	0	0	180	LEFT	402.0	1
197.220703125	0.2	RANDOM	0	0.574171256709633	0	0	0	NONE	406.0	1
198.62060546875	0.2	RANDOM	0	0.724965348292244	0	0	0	NONE	410.0	1
200.26025390625	0.2	RANDOM	0	0.670054162913402	0	0	0	NONE	413.0	1
201.5205078125	0.2	RANDOM	0	0.69747277969509	0	0	0	NONE	417.0	1
202.9404296875	0.2	COHERENT	1	0.574387075274899	0	0	180	LEFT	421.0	1
204.18994140625	0.2	COHERENT	1	0.643618048830831	0	0	0	RIGHT	425.0	1
205.64013671875	0.2	RANDOM	0	0.439073966304932	0	0	0	NONE	429.0	1
206.830078125	0.2	COHERENT	1	1.03985912329972	0	0	0	RIGHT	433.0	1
208.759765625	0.2	COHERENT	1	0.669613772303819	0	0	0	RIGHT	435.0	1
210.099609375	0.2	COHERENT	1	0.678557414378702	0	0	0	RIGHT	439.0	1
211.49951171875	0.2	COHERENT	1	0.664302824536207	0	0	0	RIGHT	443.0	1
212.82958984375	0.2	COHERENT	1	n/a	0	1	180	LEFT	447.0	0
214.3291015625	0.2	COHERENT	1	1.04988849877191	0	0	0	RIGHT	451.0	1
216.16943359375	0.2	COHERENT	1	0.714416197198261	0	0	0	RIGHT	453.0	1
217.7490234375	0.2	COHERENT	1	0.634575401875736	0	0	0	RIGHT	456.0	1
219.13916015625	0.2	COHERENT	1	0.609367793471392	0	0	0	RIGHT	460.0	1
220.458984375	0.2	COHERENT	1	0.758179070850929	0	0	0	RIGHT	464.0	1
221.85888671875	0.2	COHERENT	1	0.647970641431129	0	0	0	RIGHT	468.0	1
223.30859375	0.2	RANDOM	0	0.639805455410169	0	0	0	NONE	472.0	1
224.62841796875	0.2	RANDOM	0	0.543596859371974	0	0	0	NONE	476.0	1
225.7783203125	0.2	COHERENT	1	0.668395529326517	0	0	180	LEFT	480.0	1
227.33837890625	0.2	COHERENT	1	0.669088563487094	0	0	180	LEFT	483.0	1
228.6083984375	0.2	COHERENT	1	0.578140809087017	0	0	0	RIGHT	487.0	1
230.0283203125	0.2	RANDOM	0	0.670880008499807	0	0	0	NONE	491.0	1
231.47802734375	0.2	RANDOM	0	1.17440947211071	0	0	0	NONE	495.0	1
233.27783203125	0.2	RANDOM	0	0.573477920704136	0	0	0	NONE	497.0	1
234.56787109375	0.2	RANDOM	0	0.538393971810365	0	0	0	NONE	501.0	1
235.7978515625	0.2	COHERENT	1	0.588111928639591	0	0	180	LEFT	505.0	1
237.03759765625	0.2	RANDOM	0	n/a	0	1	0	NONE	509.0	0
238.517578125	0.2	COHERENT	1	1.0688545739049	0	0	0	RIGHT	513.0	1
240.25732421875	0.2	COHERENT	1	0.708601773395458	0	0	180	LEFT	515.0	1
n/a	0.2	COHERENT	1	0.65820376170268	1	0	180	LEFT	n/a	1
266.08544921875	0.2	COHERENT	1	0.540330302013899	0	0	0	RIGHT	519.0	1
267.2451171875	0.2	COHERENT	1	0.518375667980763	0	0	180	LEFT	523.0	1
268.5751953125	0.2	RANDOM	0	0.595124673705868	0	0	0	NONE	527.0	1
n/a	0.2	RANDOM	0	0.854774329241991	1	0	0	NONE	n/a	1
271.51513671875	0.2	RANDOM	0	0.627574428729531	0	0	0	NONE	530.0	1
272.875	0.2	RANDOM	0	0.539358363859719	0	0	0	NONE	534.0	1
274.02490234375	0.2	COHERENT	1	0.748183803767461	0	0	0	RIGHT	538.0	1
275.53466796875	0.2	RANDOM	0	0.988855008559767	0	0	0	NONE	541.0	1
277.234375	0.2	COHERENT	1	n/a	0	1	0	RIGHT	544.0	0
278.6845703125	0.2	COHERENT	1	0.744705955506106	0	0	180	LEFT	548.0	1
280.154296875	0.2	RANDOM	0	0.584460821836728	0	0	0	NONE	552.0	1
281.333984375	0.2	RANDOM	0	1.03834235646082	0	0	0	NONE	556.0	1
283.154296875	0.2	COHERENT	1	0.563907650180226	0	0	0	RIGHT	558.0	1
284.423828125	0.2	COHERENT	1	0.699036936064658	0	0	0	RIGHT	562.0	1
285.82373046875	0.2	RANDOM	0	0.747812233622426	0	0	0	NONE	566.0	1
287.2939453125	0.2	RANDOM	0	0.554605417257335	0	0	0	NONE	570.0	1
288.49365234375	0.2	RANDOM	0	0.538544592040125	0	0	0	NONE	574.0	1
289.8037109375	0.2	COHERENT	1	0.824264526551815	0	0	0	RIGHT	578.0	1
291.513671875	0.2	RANDOM	0	n/a	0	1	0	NONE	581.0	0
293.46337890625	0.2	RANDOM	0	0.638810577102049	0	0	0	NONE	582.0	1
294.96337890625	0.2	COHERENT	1	0.624833382030374	0	0	180	LEFT	586.0	1
296.2431640625	0.2	RANDOM	0	0.587403500426262	0	0	0	NONE	590.0	1
297.56298828125	0.2	RANDOM	0	0.604318544579655	0	0	0	NONE	594.0	1
299.0126953125	0.2	RANDOM	0	0.449296220186625	0	0	0	NONE	598.0	1
300.06298828125	0.2	COHERENT	1	0.527870175625139	0	0	0	RIGHT	602.0	1
301.302734375	0.2	RANDOM	0	0.667808744304239	0	0	0	NONE	606.0	1
302.57275390625	0.2	COHERENT	1	0.647590921493247	0	0	180	LEFT	610.0	1
303.97265625	0.2	COHERENT	1	0.639394041837477	0	0	0	RIGHT	614.0	1
305.3525390625	0.2	COHERENT	1	n/a	0	1	180	LEFT	618.0	0
306.75244140625	0.2	RANDOM	0	0.894047573052376	0	0	0	NONE	622.0	1
308.47216796875	0.2	RANDOM	0	0.513870040398615	0	0	0	NONE	625.0	1
309.65185546875	0.2	RANDOM	0	0.733779197385047	0	0	0	NONE	629.0	1
311.162109375	0.2	COHERENT	1	0.514519005314469	0	0	0	RIGHT	632.0	1
312.32177734375	0.2	COHERENT	1	1.13832641908994	0	0	180	LEFT	636.0	1
314.32177734375	0.2	COHERENT	1	0.889826886344963	0	0	0	RIGHT	638.0	1
315.83154296875	0.2	RANDOM	0	0.643853789109926	0	0	0	NONE	641.0	1
317.13134765625	0.2	RANDOM	0	1.07780636577263	0	0	0	NONE	645.0	1
318.83154296875	0.2	RANDOM	0	0.703557957698649	0	0	0	NONE	647.0	1
320.1611328125	0.2	RANDOM	0	0.533376718399268	0	0	0	NONE	651.0	1
321.60107421875	0.2	RANDOM	0	0.459307183166857	0	0	0	NONE	655.0	1
322.880859375	0.2	RANDOM	0	0.475106913197124	0	0	0	NONE	659.0	1
324.02099609375	0.2	RANDOM	0	0.548906297917711	0	0	0	NONE	663.0	1
325.1806640625	0.2	COHERENT	1	0.732775565596057	0	0	180	LEFT	667.0	1
326.640625	0.2	COHERENT	1	0.68445152503773	0	0	0	RIGHT	671.0	1
327.95068359375	0.2	COHERENT	1	0.613090135491802	0	0	0	RIGHT	675.0	1
329.24072265625	0.2	COHERENT	1	0.523267656071766	0	0	0	RIGHT	679.0	1
330.470703125	0.2	RANDOM	0	0.738026748220364	0	0	0	NONE	683.0	1
332.01025390625	0.2	COHERENT	1	0.538854284134686	0	0	0	RIGHT	686.0	1
333.4404296875	0.2	RANDOM	0	0.669640334588621	0	0	0	NONE	690.0	1
334.72998046875	0.2	COHERENT	1	0.778515820255052	0	0	0	RIGHT	694.0	1
336.18017578125	0.2	RANDOM	0	0.963278848452319	0	0	0	NONE	698.0	1
338.0498046875	0.2	RANDOM	0	0.679067530987595	0	0	0	NONE	701.0	1
339.40966796875	0.2	COHERENT	1	0.91785824674389	0	0	0	RIGHT	705.0	1
341.0498046875	0.2	COHERENT	1	0.648409824665578	0	0	180	LEFT	708.0	1
342.4697265625	0.2	COHERENT	1	0.564929694461171	0	0	0	RIGHT	712.0	1
343.87939453125	0.2	COHERENT	1	0.528331393481494	0	0	0	RIGHT	716.0	1
345.2294921875	0.2	RANDOM	0	0.694123818883781	0	0	0	NONE	720.0	1
346.83935546875	0.2	COHERENT	1	n/a	0	1	180	LEFT	723.0	0
348.18896484375	0.2	COHERENT	1	0.919837740660114	0	0	180	LEFT	727.0	1
350.0087890625	0.2	COHERENT	1	0.659668309504013	0	0	180	LEFT	730.0	1
351.36865234375	0.2	RANDOM	0	0.728466136708448	0	0	0	NONE	734.0	1
352.8388671875	0.2	RANDOM	0	1.01895098292516	0	0	0	NONE	738.0	1
354.6787109375	0.2	COHERENT	1	1.16998172031799	0	0	0	RIGHT	740.0	1
356.65869140625	0.2	RANDOM	0	0.744370606658777	0	0	0	NONE	742.0	1
358.05859375	0.2	COHERENT	1	0.648805844186427	0	0	180	LEFT	746.0	1
359.30810546875	0.2	RANDOM	0	0.698216523673182	0	0	0	NONE	750.0	1
360.658203125	0.2	RANDOM	0	0.638237073222626	0	0	0	NONE	754.0	1
362.0478515625	0.2	COHERENT	1	n/a	0	1	180	LEFT	758.0	0
363.26806640625	0.2	RANDOM	0	1.00476098773106	0	0	0	NONE	762.0	1
365.177734375	0.2	COHERENT	1	0.759357470401483	0	0	0	RIGHT	764.0	1
366.837890625	0.2	RANDOM	0	0.65920437504974	0	0	0	NONE	767.0	1
368.3173828125	0.2	RANDOM	0	0.503237882165195	0	0	0	NONE	771.0	1
369.50732421875	0.2	RANDOM	0	0.483048432703981	0	0	0	NONE	775.0	1
370.58740234375	0.2	RANDOM	0	0.517852572074844	0	0	0	NONE	779.0	1
371.9375	0.2	COHERENT	1	0.764763499073524	0	0	0	RIGHT	783.0	1
373.3671875	0.2	COHERENT	1	0.493606337277924	0	0	180	LEFT	787.0	1
374.72705078125	0.2	RANDOM	0	0.639330956410959	0	0	0	NONE	791.0	1
376.22705078125	0.2	RANDOM	0	0.634166101212031	0	0	0	NONE	795.0	1
377.47705078125	0.2	RANDOM	0	0.818029030162506	0	0	0	NONE	799.0	1
379.14697265625	0.2	RANDOM	0	0.599811105933441	0	0	0	NONE	802.0	1
380.57666015625	0.2	COHERENT	1	0.81955455048228	0	0	0	RIGHT	806.0	1
n/a	0.2	RANDOM	0	n/a	1	1	0	NONE	n/a	0
384.17626953125	0.2	COHERENT	1	0.548861926828067	0	0	180	LEFT	808.0	1
385.34619140625	0.2	COHERENT	1	0.614040340866268	0	0	0	RIGHT	812.0	1
386.71630859375	0.2	COHERENT	1	0.459894873720259	0	0	180	LEFT	816.0	1
387.7958984375	0.2	COHERENT	1	0.533801111269895	0	0	180	LEFT	820.0	1
388.98583984375	0.2	COHERENT	1	0.508545509645955	0	0	0	RIGHT	824.0	1
390.255859375	0.2	COHERENT	1	0.470098111421976	0	0	180	LEFT	828.0	1
391.3857421875	0.2	COHERENT	1	0.592274963114505	0	0	180	LEFT	832.0	1
392.65576171875	0.2	COHERENT	1	0.493047623762322	0	0	0	RIGHT	836.0	1
393.8056640625	0.2	RANDOM	0	0.697840425866161	0	0	0	NONE	840.0	1
395.1357421875	0.2	COHERENT	1	0.812864778651601	0	0	180	LEFT	844.0	1
396.775390625	0.2	COHERENT	1	0.624518558585805	0	0	180	LEFT	847.0	1
398.22509765625	0.2	RANDOM	0	0.585215432204677	0	0	0	NONE	851.0	1
399.55517578125	0.2	COHERENT	1	0.468240562540814	0	0	180	LEFT	855.0	1
400.77490234375	0.2	COHERENT	1	0.619042200226431	0	0	0	RIGHT	859.0	1
402.2451171875	0.2	RANDOM	0	0.549825715189399	0	0	0	NONE	863.0	1
403.56494140625	0.2	COHERENT	1	0.524748805300987	0	0	180	LEFT	867.0	1
404.69482421875	0.2	COHERENT	1	0.608600203805508	0	0	180	LEFT	871.0	1
406.08447265625	0.2	COHERENT	1	0.754296147743844	0	0	0	RIGHT	875.0	1
407.71435546875	0.2	RANDOM	0	0.774101953294121	0	0	0	NONE	878.0	1
409.28466796875	0.2	RANDOM	0	0.619876799293706	0	0	0	NONE	881.0	1
410.68408203125	0.2	COHERENT	1	0.754655644123886	0	0	180	LEFT	885.0	1
412.2841796875	0.2	RANDOM	0	1.01952780708962	0	0	0	NONE	888.0	1
414.2041015625	0.2	COHERENT	1	0.719076067140122	0	0	180	LEFT	890.0	1
415.60400390625	0.2	RANDOM	0	n/a	0	1	0	NONE	894.0	0
417.49365234375	0.2	RANDOM	0	0.567815022662217	0	0	0	NONE	895.0	1
418.94384765625	0.2	COHERENT	1	0.724732626455079	0	0	0	RIGHT	899.0	1
420.50341796875	0.2	COHERENT	1	0.488585159892864	0	0	180	LEFT	902.0	1
421.763671875	0.2	RANDOM	0	0.759477302527557	0	0	0	NONE	906.0	1
423.29345703125	0.2	RANDOM	0	0.803827866734537	0	0	0	NONE	909.0	1
424.89306640625	0.2	RANDOM	0	0.599954481902387	0	0	0	NONE	912.0	1
426.1630859375	0.2	COHERENT	1	0.822820805996344	0	0	0	RIGHT	916.0	1
427.89306640625	0.2	RANDOM	0	0.769278181980553	0	0	0	NONE	919.0	1
429.48291015625	0.2	COHERENT	1	0.804525730402929	0	0	180	LEFT	922.0	1
431.16259765625	0.2	RANDOM	0	1.00419472811063	0	0	0	NONE	925.0	1
432.7724609375	0.2	RANDOM	0	0.65798100072152	0	0	0	NONE	927.0	1
434.28271484375	0.2	RANDOM	0	0.579745110728254	0	0	0	NONE	930.0	1
435.5322265625	0.2	COHERENT	1	n/a	0	1	180	LEFT	934.0	0
436.65234375	0.2	COHERENT	1	0.923486432709069	0	0	180	LEFT	938.0	1
438.40234375	0.2	COHERENT	1	0.374261387372826	0	0	180	LEFT	941.0	1
439.40234375	0.2	COHERENT	1	0.483097633300531	0	0	180	LEFT	945.0	1
440.5419921875	0.2	RANDOM	0	0.878153969492814	0	0	0	NONE	949.0	1
442.19189453125	0.2	RANDOM	0	0.81475311563554	0	0	0	NONE	952.0	1
443.86181640625	0.2	COHERENT	1	0.849506847032899	0	0	0	RIGHT	955.0	1
445.41162109375	0.2	RANDOM	0	0.658326914113786	0	0	0	NONE	958.0	1
446.841796875	0.2	COHERENT	1	1.1940233047826	0	0	180	LEFT	962.0	1
448.91162109375	0.2	COHERENT	1	0.684805588221934	0	0	0	RIGHT	964.0	1
450.38134765625	0.2	RANDOM	0	n/a	0	1	0	NONE	968.0	0
451.7509765625	0.2	RANDOM	0	0.709525416484212	0	0	0	NONE	972.0	1
453.22119140625	0.2	RANDOM	0	0.569972000937014	0	0	0	NONE	976.0	1
454.60107421875	0.2	RANDOM	0	0.563123760929557	0	0	0	NONE	980.0	1
455.9208984375	0.2	COHERENT	1	0.709997802574435	0	0	180	LEFT	984.0	1
457.49072265625	0.2	RANDOM	0	0.69977192656188	0	0	0	NONE	987.0	1
458.8408203125	0.2	COHERENT	1	0.798551631044575	0	0	0	RIGHT	991.0	1
460.25048828125	0.2	COHERENT	1	0.593467549339039	0	0	0	RIGHT	995.0	1
461.6103515625	0.2	COHERENT	1	0.609273014408245	0	0	0	RIGHT	999.0	1
462.89013671875	0.2	RANDOM	0	n/a	0	1	0	NONE	1003.0	0
464.7099609375	0.2	RANDOM	0	n/a	0	1	0	NONE	1004.0	0
466.06005859375	0.2	COHERENT	1	n/a	0	1	0	RIGHT	1008.0	0
468.0400390625	0.2	RANDOM	0	0.779207647040494	0	0	0	NONE	1009.0	1
469.6298828125	0.2	RANDOM	0	0.709147809456226	0	0	0	NONE	1012.0	1
470.99951171875	0.2	COHERENT	1	1.01799534435577	0	0	0	RIGHT	1016.0	1
472.7294921875	0.2	COHERENT	1	0.695318216174201	0	0	0	RIGHT	1018.0	1
474.32958984375	0.2	COHERENT	1	0.668579956099165	0	0	180	LEFT	1021.0	1
475.79931640625	0.2	COHERENT	1	0.539454953986933	0	0	180	LEFT	1025.0	1
477.21923828125	0.2	COHERENT	1	0.785333875847755	0	0	0	RIGHT	1029.0	1
478.76904296875	0.2	RANDOM	0	0.693758285621698	0	0	0	NONE	1032.0	1
480.3388671875	0.2	RANDOM	0	0.625080592387349	0	0	0	NONE	1035.0	1
n/a	0.2	RANDOM	0	n/a	1	1	0	NONE	n/a	0
501.787109375	0.2	RANDOM	0	n/a	0	1	0	NONE	1037.0	1
502.63720703125	0.2	RANDOM	0	0.589980343908792	0	0	0	NONE	1042.0	1
504.05712890625	0.2	COHERENT	1	n/a	0	1	0	RIGHT	1046.0	0
505.4072265625	0.2	COHERENT	1	0.764568205911019	0	0	0	RIGHT	1050.0	1
507.0068359375	0.2	RANDOM	0	0.544453191217144	0	0	0	NONE	1053.0	1
508.376953125	0.2	COHERENT	1	0.554282745863929	0	0	0	RIGHT	1057.0	1
509.57666015625	0.2	RANDOM	0	0.518069899860166	0	0	0	NONE	1061.0	1
510.8466796875	0.2	COHERENT	1	0.550007123521937	0	0	180	LEFT	1065.0	1
n/a	0.2	RANDOM	0	0.947764361140798	1	0	0	NONE	n/a	1
513.84619140625	0.2	RANDOM	0	0.649510348423973	0	0	0	NONE	1068.0	1
515.1962890625	0.2	COHERENT	1	0.758317919158799	0	0	180	LEFT	1072.0	1
516.54638671875	0.2	COHERENT	1	0.678213915740344	0	0	180	LEFT	1076.0	1
518.0361328125	0.2	COHERENT	1	0.570064667090264	0	0	180	LEFT	1080.0	1
519.48583984375	0.2	COHERENT	1	n/a	0	1	0	RIGHT	1084.0	0
521.10595703125	0.2	RANDOM	0	0.819315791761255	0	0	0	NONE	1087.0	1
522.765625	0.2	COHERENT	1	0.74893569753749	0	0	0	RIGHT	1090.0	1
524.275390625	0.2	COHERENT	1	0.559068484814816	0	0	0	RIGHT	1093.0	1
525.45556640625	0.2	COHERENT	1	0.533192593468812	0	0	180	LEFT	1097.0	1
526.85546875	0.2	RANDOM	0	0.674975429886217	0	0	0	NONE	1101.0	1
528.4453125	0.2	RANDOM	0	0.588732822049678	0	0	0	NONE	1104.0	1
529.875	0.2	RANDOM	0	0.499497429495023	0	0	0	NONE	1108.0	1
530.9951171875	0.2	RANDOM	0	0.553306581892684	0	0	0	NONE	1112.0	1
532.31494140625	0.2	RANDOM	0	0.509223149755599	0	0	0	NONE	1116.0	1
533.51513671875	0.2	RANDOM	0	0.558023198533192	0	0	0	NONE	1120.0	1
534.974609375	0.2	RANDOM	0	0.729914384925905	0	0	0	NONE	1124.0	1
536.5947265625	0.2	COHERENT	1	0.549592389663303	0	0	180	LEFT	1127.0	1
537.8447265625	0.2	COHERENT	1	0.478490887929183	0	0	0	RIGHT	1131.0	1
539.16455078125	0.2	COHERENT	1	0.654152711405914	0	0	0	RIGHT	1135.0	1
540.46435546875	0.2	RANDOM	0	0.628049833261684	0	0	0	NONE	1139.0	1
541.814453125	0.2	RANDOM	0	0.524994506436997	0	0	0	NONE	1143.0	1
543.234375	0.2	RANDOM	0	0.519937409597333	0	0	0	NONE	1147.0	1
544.6240234375	0.2	COHERENT	1	0.669671122690488	0	0	180	LEFT	1151.0	1
546.0341796875	0.2	RANDOM	0	0.659486901171476	0	0	0	NONE	1155.0	1
547.52392578125	0.2	RANDOM	0	n/a	0	1	0	NONE	1159.0	0
548.82373046875	0.2	COHERENT	1	0.743749109559758	0	0	0	RIGHT	1163.0	1
550.19384765625	0.2	RANDOM	0	1.04277010825353	0	0	0	NONE	1167.0	1
551.96337890625	0.2	COHERENT	1	1.02454958816452	0	0	180	LEFT	1169.0	1
553.61328125	0.2	RANDOM	0	0.673436930269418	0	0	0	NONE	1171.0	1
554.943359375	0.2	RANDOM	0	n/a	0	1	0	NONE	1175.0	0
556.86328125	0.2	RANDOM	0	1.10397232934338	0	0	0	NONE	1176.0	1
558.712890625	0.2	RANDOM	0	0.609878513767399	0	0	0	NONE	1178.0	1
560.052734375	0.2	COHERENT	1	0.624651671853826	0	0	0	RIGHT	1182.0	1
561.3330078125	0.2	COHERENT	1	0.948315830397405	0	0	0	RIGHT	1186.0	1
562.982421875	0.2	COHERENT	1	n/a	0	1	180	LEFT	1189.0	0
564.1328125	0.2	COHERENT	1	0.65320884475841	0	0	180	LEFT	1193.0	1
565.482421875	0.2	RANDOM	0	0.677998097174168	0	0	0	NONE	1197.0	1
567.05224609375	0.2	RANDOM	0	0.719735596600913	0	0	0	NONE	1200.0	1
568.4521484375	0.2	COHERENT	1	n/a	0	1	0	RIGHT	1204.0	0
569.77197265625	0.2	COHERENT	1	1.13444560889275	0	0	180	LEFT	1208.0	1
571.72216796875	0.2	COHERENT	1	0.714015348170506	0	0	0	RIGHT	1210.0	1
573.24169921875	0.2	COHERENT	1	0.649750918209975	0	0	180	LEFT	1213.0	1
574.591796875	0.2	RANDOM	0	0.748573786405359	0	0	0	NONE	1217.0	1
575.94189453125	0.2	RANDOM	0	0.908512548265207	0	0	0	NONE	1221.0	1
577.63134765625	0.2	RANDOM	0	0.454501824345243	0	0	0	NONE	1224.0	1
578.91162109375	0.2	COHERENT	1	0.784246029541464	0	0	0	RIGHT	1228.0	1
580.3115234375	0.2	COHERENT	1	0.603047478876761	0	0	0	RIGHT	1232.0	1
581.75146484375	0.2	COHERENT	1	0.45483656950546	0	0	0	RIGHT	1236.0	1
582.8310546875	0.2	COHERENT	1	0.693723875388969	0	0	180	LEFT	1240.0	1
584.37109375	0.2	COHERENT	1	0.648526940193733	0	0	180	LEFT	1243.0	1
585.62109375	0.2	COHERENT	1	0.478073739317551	0	0	180	LEFT	1247.0	1
n/a	0.2	COHERENT	1	0.813309395080068	1	0	180	LEFT	n/a	1
588.32080078125	0.2	COHERENT	1	0.654003298552198	0	0	180	LEFT	1250.0	1
589.720703125	0.2	COHERENT	1	0.779926036109828	0	0	0	RIGHT	1254.0	1
591.220703125	0.2	RANDOM	0	0.634685273144896	0	0	0	NONE	1258.0	1
592.71044921875	0.2	RANDOM	0	0.689493227825551	0	0	0	NONE	1262.0	1
594.17041015625	0.2	RANDOM	0	0.514378345942532	0	0	0	NONE	1266.0	1
595.3603515625	0.2	COHERENT	1	0.723065843075346	0	0	180	LEFT	1270.0	1
596.990234375	0.2	COHERENT	1	0.729925855003785	0	0	0	RIGHT	1273.0	1
598.330078125	0.2	COHERENT	1	0.747739187338993	0	0	0	RIGHT	1277.0	1
599.90966796875	0.2	RANDOM	0	0.729475201692367	0	0	0	NONE	1280.0	1
601.44970703125	0.2	COHERENT	1	0.549408566578677	0	0	180	LEFT	1283.0	1
602.6494140625	0.2	RANDOM	0	0.688196807212989	0	0	0	NONE	1287.0	1
604.16943359375	0.2	RANDOM	0	0.683970989155569	0	0	0	NONE	1290.0	1
605.49951171875	0.2	COHERENT	1	0.997878337490874	0	0	0	RIGHT	1294.0	1
607.3994140625	0.2	COHERENT	1	0.529269223246956	0	0	180	LEFT	1296.0	1
608.7490234375	0.2	COHERENT	1	0.604445319121623	0	0	180	LEFT	1300.0	1
610.09912109375	0.2	COHERENT	1	0.709089855380626	0	0	180	LEFT	1304.0	1
611.43896484375	0.2	RANDOM	0	0.763126598265444	0	0	0	NONE	1308.0	1
613.05859375	0.2	RANDOM	0	0.77962026798923	0	0	0	NONE	1311.0	1
614.5888671875	0.2	COHERENT	1	0.600919477640673	0	0	180	LEFT	1314.0	1
615.9384765625	0.2	COHERENT	1	0.619525452705602	0	0	180	LEFT	1318.0	1
617.2783203125	0.2	COHERENT	1	0.464260747462504	0	0	180	LEFT	1322.0	1
618.3984375	0.2	RANDOM	0	0.838219385155753	0	0	0	NONE	1326.0	1
620.1083984375	0.2	COHERENT	1	1.09491036436157	0	0	0	RIGHT	1329.0	1
622.0283203125	0.2	RANDOM	0	0.544478546124992	0	0	0	NONE	1331.0	1
623.34814453125	0.2	RANDOM	0	0.644492491324854	0	0	0	NONE	1335.0	1
624.748046875	0.2	COHERENT	1	0.52938603693201	0	0	180	LEFT	1339.0	1
625.94775390625	0.2	RANDOM	0	0.713211839051837	0	0	0	NONE	1343.0	1
627.4677734375	0.2	COHERENT	1	n/a	0	1	180	LEFT	1346.0	0
629.11767578125	0.2	COHERENT	1	0.67895313205554	0	0	0	RIGHT	1349.0	1
630.45751953125	0.2	COHERENT	1	0.447636077377865	0	0	180	LEFT	1353.0	1
631.5576171875	0.2	RANDOM	0	0.648455403130356	0	0	0	NONE	1357.0	1
632.80712890625	0.2	RANDOM	0	0.798240127885038	0	0	0	NONE	1361.0	1
634.47705078125	0.2	RANDOM	0	0.834052426705966	0	0	0	NONE	1364.0	1
636.0068359375	0.2	COHERENT	1	0.677910864215846	0	0	180	LEFT	1367.0	1
637.3369140625	0.2	RANDOM	0	0.987712226619806	0	0	0	NONE	1371.0	1
639.1767578125	0.2	COHERENT	1	0.83945060743099	0	0	0	RIGHT	1374.0	1
640.74658203125	0.2	RANDOM	0	0.974247864754034	0	0	0	NONE	1377.0	1
642.49658203125	0.2	RANDOM	0	n/a	0	1	0	NONE	1380.0	0
644.56640625	0.2	RANDOM	0	0.854534363144921	0	0	0	NONE	1381.0	1
646.21630859375	0.2	COHERENT	1	0.699636398539951	0	0	180	LEFT	1384.0	1
647.71630859375	0.2	COHERENT	1	0.789398509131388	0	0	0	RIGHT	1388.0	1
649.13623046875	0.2	RANDOM	0	n/a	0	1	0	NONE	1392.0	0
650.5361328125	0.2	RANDOM	0	0.643998674300747	0	0	0	NONE	1396.0	1
651.81591796875	0.2	COHERENT	1	0.862916273263181	0	0	180	LEFT	1400.0	1
653.505859375	0.2	RANDOM	0	0.70469772119759	0	0	0	NONE	1403.0	1
654.9755859375	0.2	COHERENT	1	0.674277868062745	0	0	180	LEFT	1407.0	1
656.25537109375	0.2	COHERENT	1	0.838111023106649	0	0	180	LEFT	1411.0	1
n/a	0.2	COHERENT	1	0.869143318015631	1	0	0	RIGHT	n/a	1
659.3955078125	0.2	COHERENT	1	0.712907881995307	0	0	0	RIGHT	1415.0	1
660.8251953125	0.2	COHERENT	1	0.844450957570189	0	0	0	RIGHT	1419.0	1
662.5751953125	0.2	RANDOM	0	0.650327742375339	0	0	0	NONE	1422.0	1
663.89501953125	0.2	COHERENT	1	0.83238745439121	0	0	0	RIGHT	1426.0	1
665.4248046875	0.2	RANDOM	0	0.708028873204057	0	0	0	NONE	1429.0	1
666.99462890625	0.2	RANDOM	0	0.859900850235135	0	0	0	NONE	1432.0	1
668.53466796875	0.2	RANDOM	0	0.86284352882376	0	0	0	NONE	1435.0	1
670.25439453125	0.2	RANDOM	0	0.789204423344927	0	0	0	NONE	1438.0	1
671.7041015625	0.2	RANDOM	0	0.90322333327731	0	0	0	NONE	1442.0	1
673.484375	0.2	RANDOM	0	0.724138597172896	0	0	0	NONE	1445.0	1
674.93408203125	0.2	RANDOM	0	0.64493680590931	0	0	0	NONE	1449.0	1
676.48388671875	0.2	COHERENT	1	0.799707995972312	0	0	0	RIGHT	1452.0	1
677.99365234375	0.2	COHERENT	1	0.688508914061458	0	0	180	LEFT	1455.0	1
679.3037109375	0.2	RANDOM	0	0.673434515516419	0	0	0	NONE	1459.0	1
680.79345703125	0.2	RANDOM	0	0.744073893862151	0	0	0	NONE	1463.0	1
n/a	0.2	COHERENT	1	0.763905959852309	1	0	0	RIGHT	n/a	1
683.86328125	0.2	COHERENT	1	0.834491006251483	0	0	0	RIGHT	1466.0	1
685.34326171875	0.2	RANDOM	0	0.768631631817698	0	0	0	NONE	1470.0	1
686.88330078125	0.2	RANDOM	0	0.604391892708009	0	0	0	NONE	1473.0	1
688.212890625	0.2	COHERENT	1	1.10417305570172	0	0	0	RIGHT	1477.0	1
690.06298828125	0.2	COHERENT	1	0.999937518261504	0	0	0	RIGHT	1479.0	1
691.70263671875	0.2	RANDOM	0	0.762812378507988	0	0	0	NONE	1481.0	1
693.08251953125	0.2	COHERENT	1	0.643217199803985	0	0	0	RIGHT	1485.0	1
694.3828125	0.2	RANDOM	0	n/a	0	1	0	NONE	1489.0	0
696.25244140625	0.2	RANDOM	0	0.743926895762343	0	0	0	NONE	1490.0	1
697.80224609375	0.2	COHERENT	1	0.789911644181302	0	0	0	RIGHT	1493.0	1
699.34228515625	0.2	COHERENT	1	0.810771791337174	0	0	180	LEFT	1496.0	1
701.001953125	0.2	RANDOM	0	n/a	0	1	0	NONE	1499.0	0
702.8720703125	0.2	RANDOM	0	0.97335018026115	0	0	0	NONE	1500.0	1
704.69189453125	0.2	RANDOM	0	0.849341436440227	0	0	0	NONE	1503.0	1
706.3916015625	0.2	COHERENT	1	0.729903518536958	0	0	180	LEFT	1506.0	1
707.83154296875	0.2	RANDOM	0	n/a	0	1	0	NONE	1510.0	0
709.63134765625	0.2	COHERENT	1	0.808424651249879	0	0	0	RIGHT	1511.0	1
711.10107421875	0.2	COHERENT	1	0.678357593553301	0	0	0	RIGHT	1515.0	1
712.6513671875	0.2	RANDOM	0	0.644155029568537	0	0	0	NONE	1518.0	1
n/a	0.2	COHERENT	1	0.854904424068991	1	0	180	LEFT	n/a	1
715.65087890625	0.2	RANDOM	0	0.834721917024581	0	0	0	NONE	1521.0	1
717.0908203125	0.2	COHERENT	1	0.768708602075094	0	0	0	RIGHT	1525.0	1
718.75048828125	0.2	RANDOM	0	0.789334216327916	0	0	0	NONE	1528.0	1
720.29052734375	0.2	RANDOM	0	0.839101373752783	0	0	0	NONE	1531.0	1
n/a	0.2	COHERENT	1	0.721391211746777	1	0	0	RIGHT	n/a	1
n/a	0.2	RANDOM	0	0.712831817270853	1	0	0	NONE	n/a	1
739.8388671875	0.2	COHERENT	1	0.578417600169814	0	0	0	RIGHT	1535.0	1
741.0888671875	0.2	COHERENT	1	0.533399960398128	0	0	0	RIGHT	1539.0	1
742.35888671875	0.2	RANDOM	0	0.654347400880397	0	0	0	NONE	1543.0	1
743.65869140625	0.2	RANDOM	0	0.59807821868435	0	0	0	NONE	1547.0	1
745.15869140625	0.2	COHERENT	1	0.559982167048474	0	0	180	LEFT	1551.0	1
746.37841796875	0.2	COHERENT	1	0.637876973155471	0	0	0	RIGHT	1555.0	1
747.87841796875	0.2	RANDOM	0	0.474363772907054	0	0	0	NONE	1559.0	1
749.17822265625	0.2	COHERENT	1	0.434464202491654	0	0	0	RIGHT	1563.0	1
750.45849609375	0.2	COHERENT	1	0.459338574957656	0	0	0	RIGHT	1567.0	1
751.828125	0.2	RANDOM	0	0.559146964293177	0	0	0	NONE	1571.0	1
753.06787109375	0.2	RANDOM	0	0.91291253039617	0	0	0	NONE	1575.0	1
n/a	0.2	COHERENT	1	0.499876243899052	1	0	180	LEFT	n/a	1
n/a	0.2	COHERENT	1	0.514445355343014	1	0	180	LEFT	n/a	1
757.41796875	0.2	RANDOM	0	0.579384406973077	0	0	0	NONE	1579.0	1
758.7978515625	0.2	RANDOM	0	n/a	0	1	0	NONE	1583.0	0
759.83740234375	0.2	RANDOM	0	0.65803895479803	0	0	0	NONE	1587.0	1
761.3076171875	0.2	RANDOM	0	0.370445171821302	0	0	0	NONE	1591.0	1
762.33740234375	0.2	RANDOM	0	0.662697013674006	0	0	0	NONE	1595.0	1
763.9072265625	0.2	COHERENT	1	0.649440622427392	0	0	0	RIGHT	1598.0	1
765.1572265625	0.2	COHERENT	1	0.758360177339455	0	0	180	LEFT	1602.0	1
766.77685546875	0.2	COHERENT	1	0.649148739136763	0	0	180	LEFT	1605.0	1
768.19677734375	0.2	RANDOM	0	0.58508322446869	0	0	0	NONE	1609.0	1
769.47705078125	0.2	COHERENT	1	n/a	0	1	0	RIGHT	1613.0	0
770.796875	0.2	RANDOM	0	0.928347934541307	0	0	0	NONE	1617.0	1
772.37646484375	0.2	COHERENT	1	0.538434720770056	0	0	180	LEFT	1620.0	1
773.5966796875	0.2	COHERENT	1	0.873207347610332	0	0	0	RIGHT	1624.0	1
775.16650390625	0.2	COHERENT	1	0.648106471297069	0	0	0	RIGHT	1627.0	1
776.49609375	0.2	COHERENT	1	0.59290098787551	0	0	180	LEFT	1631.0	1
777.96630859375	0.2	COHERENT	1	n/a	0	1	0	RIGHT	1635.0	0
778.986328125	0.2	RANDOM	0	0.818597100847001	0	0	0	NONE	1639.0	1
780.4560546875	0.2	COHERENT	1	n/a	0	1	0	RIGHT	1643.0	0
781.9560546875	0.2	COHERENT	1	0.844005737453699	0	0	0	RIGHT	1647.0	1
783.5859375	0.2	RANDOM	0	0.869933244148342	0	0	0	NONE	1650.0	1
785.17578125	0.2	COHERENT	1	0.578845313326383	0	0	180	LEFT	1653.0	1
786.37548828125	0.2	COHERENT	1	0.703681110110665	0	0	180	LEFT	1657.0	1
787.8251953125	0.2	RANDOM	0	0.579290835286884	0	0	0	NONE	1661.0	1
789.10546875	0.2	COHERENT	1	n/a	0	1	180	LEFT	1665.0	0
791.0751953125	0.2	COHERENT	1	n/a	0	1	180	LEFT	1666.0	0
793.02490234375	0.2	COHERENT	1	0.610814834311896	0	0	180	LEFT	1667.0	1
794.51513671875	0.2	RANDOM	0	0.61461656134361	0	0	0	NONE	1671.0	1
795.884765625	0.2	COHERENT	1	0.609391639158275	0	0	0	RIGHT	1675.0	1
797.28466796875	0.2	RANDOM	0	0.589059115573036	0	0	0	NONE	1679.0	1
798.6845703125	0.2	RANDOM	0	0.849075813590389	0	0	0	NONE	1683.0	1
800.2646484375	0.2	COHERENT	1	0.629914324557831	0	0	0	RIGHT	1686.0	1
801.5341796875	0.2	COHERENT	1	0.592479613445903	0	0	180	LEFT	1690.0	1
802.9541015625	0.2	RANDOM	0	n/a	0	1	0	NONE	1694.0	0
805.0341796875	0.2	RANDOM	0	0.579313171753711	0	0	0	NONE	1695.0	1
806.3740234375	0.2	COHERENT	1	0.529159050131966	0	0	180	LEFT	1699.0	1
807.8037109375	0.2	RANDOM	0	0.489877354686541	0	0	0	NONE	1703.0	1
809.0439453125	0.2	RANDOM	0	0.77068869967934	0	0	0	NONE	1707.0	1
810.65380859375	0.2	RANDOM	0	0.709078687146757	0	0	0	NONE	1710.0	1
812.09375	0.2	COHERENT	1	0.63444349598376	0	0	180	LEFT	1714.0	1
813.5234375	0.2	COHERENT	1	n/a	0	1	180	LEFT	1718.0	0
814.79345703125	0.2	COHERENT	1	n/a	0	1	180	LEFT	1722.0	0
816.13330078125	0.2	RANDOM	0	0.993612072316864	0	0	0	NONE	1726.0	1
817.7431640625	0.2	RANDOM	0	n/a	0	1	0	NONE	1729.0	0
819.26318359375	0.2	RANDOM	0	1.09949326404603	0	0	0	NONE	1732.0	1
821.03271484375	0.2	RANDOM	0	0.57313804419482	0	0	0	NONE	1734.0	1
822.3330078125	0.2	COHERENT	1	0.754091195568435	0	0	180	LEFT	1738.0	1
823.9228515625	0.2	COHERENT	1	0.624870810705033	0	0	0	RIGHT	1741.0	1
825.17236328125	0.2	RANDOM	0	0.583706211469689	0	0	0	NONE	1745.0	1
826.62255859375	0.2	RANDOM	0	0.59444552437526	0	0	0	NONE	1749.0	1
827.9521484375	0.2	RANDOM	0	0.704708285742527	0	0	0	NONE	1753.0	1
829.55224609375	0.2	COHERENT	1	0.708153836681049	0	0	0	RIGHT	1756.0	1
831.001953125	0.2	RANDOM	0	1.03986636755963	0	0	0	NONE	1760.0	1
n/a	0.2	COHERENT	1	0.759644524185205	1	0	0	RIGHT	n/a	1
n/a	0.2	RANDOM	0	0.8534407818006	1	0	0	NONE	n/a	1
n/a	0.2	COHERENT	1	0.634302232922892	1	0	0	RIGHT	n/a	1
837.29150390625	0.2	COHERENT	1	0.618130027214647	0	0	180	LEFT	1763.0	1
838.63134765625	0.2	COHERENT	1	0.547927115504535	0	0	180	LEFT	1767.0	1
840.00146484375	0.2	RANDOM	0	0.774853847063241	0	0	0	NONE	1771.0	1
841.50146484375	0.2	RANDOM	0	0.714580098569968	0	0	0	NONE	1775.0	1
842.88134765625	0.2	RANDOM	0	0.673377165127931	0	0	0	NONE	1779.0	1
844.3212890625	0.2	RANDOM	0	0.529211872858468	0	0	0	NONE	1783.0	1
845.62109375	0.2	RANDOM	0	0.514136568781396	0	0	0	NONE	1787.0	1
846.95068359375	0.2	RANDOM	0	0.484883645118316	0	0	0	NONE	1791.0	1
848.291015625	0.2	RANDOM	0	0.429658239982928	0	0	0	NONE	1795.0	1
849.37060546875	0.2	COHERENT	1	0.648596364347213	0	0	0	RIGHT	1799.0	1
850.87060546875	0.2	RANDOM	0	0.809334107663744	0	0	0	NONE	1803.0	1
852.5205078125	0.2	COHERENT	1	0.509062870513844	0	0	180	LEFT	1806.0	1
853.91015625	0.2	RANDOM	0	0.964894318327424	0	0	0	NONE	1810.0	1
855.66015625	0.2	COHERENT	1	0.664866971247648	0	0	0	RIGHT	1813.0	1
857.22998046875	0.2	COHERENT	1	0.559574073760814	0	0	180	LEFT	1816.0	1
858.4599609375	0.2	COHERENT	1	0.523411032041622	0	0	180	LEFT	1820.0	1
859.7099609375	0.2	COHERENT	1	0.614049094347138	0	0	0	RIGHT	1824.0	1
860.94970703125	0.2	RANDOM	0	0.632825007666725	0	0	0	NONE	1828.0	1
862.39990234375	0.2	COHERENT	1	0.844839430988031	0	0	0	RIGHT	1832.0	1
863.9697265625	0.2	RANDOM	0	0.684618444850457	0	0	0	NONE	1835.0	1
865.41943359375	0.2	COHERENT	1	0.649431265258499	0	0	180	LEFT	1839.0	1
866.67919921875	0.2	COHERENT	1	0.763216547820775	0	0	0	RIGHT	1843.0	1
868.34912109375	0.2	RANDOM	0	0.839070887494017	0	0	0	NONE	1846.0	1
870.0390625	0.2	RANDOM	0	0.829659386989988	0	0	0	NONE	1849.0	1
871.5888671875	0.2	RANDOM	0	0.494834541112141	0	0	0	NONE	1852.0	1
872.85888671875	0.2	RANDOM	0	0.694574170351189	0	0	0	NONE	1856.0	1
874.28857421875	0.2	COHERENT	1	0.554238374774286	0	0	0	RIGHT	1860.0	1
875.45849609375	0.2	COHERENT	1	0.663277761814243	0	0	180	LEFT	1864.0	1
876.7587890625	0.2	COHERENT	1	0.502812583761624	0	0	180	LEFT	1868.0	1
877.8583984375	0.2	COHERENT	1	0.539046558856171	0	0	180	LEFT	1872.0	1
879.1484375	0.2	COHERENT	1	0.688681267069114	0	0	0	RIGHT	1876.0	1
880.50830078125	0.2	RANDOM	0	1.10333845663445	0	0	0	NONE	1880.0	1
882.50830078125	0.2	COHERENT	1	0.818951164032114	0	0	180	LEFT	1882.0	1
884.22802734375	0.2	RANDOM	0	0.570117187971846	0	0	0	NONE	1885.0	1
885.64794921875	0.2	COHERENT	1	0.62979539796288	0	0	180	LEFT	1889.0	1
886.91796875	0.2	COHERENT	1	n/a	0	1	0	RIGHT	1893.0	0
888.4677734375	0.2	COHERENT	1	n/a	0	1	0	RIGHT	1896.0	0
890.017578125	0.2	RANDOM	0	n/a	0	1	0	NONE	1899.0	0
892.03759765625	0.2	COHERENT	1	0.624133707297915	0	0	0	RIGHT	1900.0	1
893.4072265625	0.2	RANDOM	0	0.769894849572665	0	0	0	NONE	1904.0	1
895.0771484375	0.2	RANDOM	0	0.860118479864468	0	0	0	NONE	1907.0	1
896.6572265625	0.2	RANDOM	0	0.623557486821483	0	0	0	NONE	1910.0	1
897.98681640625	0.2	COHERENT	1	0.698344203747183	0	0	0	RIGHT	1914.0	1
899.296875	0.2	RANDOM	0	n/a	0	1	0	NONE	1918.0	0
901.376953125	0.2	RANDOM	0	n/a	0	1	0	NONE	1919.0	0
903.4765625	0.2	RANDOM	0	0.569256026619769	0	0	0	NONE	1920.0	1
904.66650390625	0.2	COHERENT	1	0.568567218277167	0	0	0	RIGHT	1924.0	1
905.92626953125	0.2	COHERENT	1	0.538353222850674	0	0	180	LEFT	1928.0	1
907.1962890625	0.2	RANDOM	0	0.494074497550173	0	0	0	NONE	1932.0	1
908.43603515625	0.2	RANDOM	0	0.559047959412965	0	0	0	NONE	1936.0	1
909.59619140625	0.2	COHERENT	1	0.617622929047684	0	0	0	RIGHT	1940.0	1
911.06591796875	0.2	COHERENT	1	0.700407308491776	0	0	180	LEFT	1944.0	1
912.3857421875	0.2	COHERENT	1	n/a	0	1	0	RIGHT	1948.0	0
913.6357421875	0.2	RANDOM	0	n/a	0	1	0	NONE	1952.0	0
915.70556640625	0.2	COHERENT	1	0.855058968272715	0	0	180	LEFT	1953.0	1
917.33544921875	0.2	RANDOM	0	0.524877089063011	0	0	0	NONE	1956.0	1
918.6455078125	0.2	COHERENT	1	n/a	0	1	180	LEFT	1960.0	0
919.775390625	0.2	RANDOM	0	0.703573351750492	0	0	0	NONE	1964.0	1
921.275390625	0.2	COHERENT	1	0.569304623528296	0	0	180	LEFT	1968.0	1
922.625	0.2	COHERENT	1	0.724169083431661	0	0	0	RIGHT	1972.0	1
923.97509765625	0.2	RANDOM	0	0.6330000772723	0	0	0	NONE	1976.0	1
925.2451171875	0.2	RANDOM	0	0.732866420683422	0	0	0	NONE	1980.0	1
926.794921875	0.2	RANDOM	0	0.584610838377557	0	0	0	NONE	1983.0	1
928.23486328125	0.2	COHERENT	1	0.799397398345718	0	0	0	RIGHT	1987.0	1
929.66455078125	0.2	RANDOM	0	0.923318003675377	0	0	0	NONE	1991.0	1
931.28466796875	0.2	COHERENT	1	n/a	0	1	0	RIGHT	1994.0	0
932.71435546875	0.2	COHERENT	1	0.829875507400175	0	0	180	LEFT	1998.0	1
934.17431640625	0.2	RANDOM	0	0.723652929940727	0	0	0	NONE	2002.0	1
935.48388671875	0.2	RANDOM	0	n/a	0	1	0	NONE	2006.0	0
937.00390625	0.2	RANDOM	0	0.898061496519404	0	0	0	NONE	2009.0	1
938.5537109375	0.2	RANDOM	0	0.478115091965265	0	0	0	NONE	2012.0	1
939.90380859375	0.2	RANDOM	0	0.564896189760475	0	0	0	NONE	2016.0	1
941.34375	0.2	COHERENT	1	0.664853690104792	0	0	0	RIGHT	2020.0	1
942.6435546875	0.2	COHERENT	1	0.513597173289781	0	0	180	LEFT	2024.0	1
943.8134765625	0.2	RANDOM	0	0.638539219214181	0	0	0	NONE	2028.0	1
945.04345703125	0.2	RANDOM	0	n/a	0	1	0	NONE	2032.0	0
946.36328125	0.2	COHERENT	1	n/a	0	1	180	LEFT	2036.0	0
947.56298828125	0.2	COHERENT	1	0.709873744629476	0	0	0	RIGHT	2040.0	1
948.89306640625	0.2	RANDOM	0	0.623842729540229	0	0	0	NONE	2044.0	1
950.36279296875	0.2	RANDOM	0	0.798595398446196	0	0	0	NONE	2048.0	1
