onset	duration	trial_type	trial_type_id	response_time	bad_epoch	outliers	direction	name_direction	event_num	response_accuracy
18.38427734375	0.2	RANDOM	0	1.19035256119969	0	0	0	NONE	1.0	1
20.26416015625	0.2	COHERENT	1	n/a	0	1	180	LEFT	3.0	0
22.06396484375	0.2	COHERENT	1	n/a	0	1	180	LEFT	4.0	0
23.85400390625	0.2	RANDOM	0	0.763804823568535	0	0	0	NONE	7.0	1
25.423828125	0.2	COHERENT	1	n/a	0	1	0	RIGHT	10.0	0
27.37353515625	0.2	RANDOM	0	1.10930966826618	0	0	0	NONE	12.0	1
29.3037109375	0.2	RANDOM	0	n/a	0	1	0	NONE	14.0	0
31.0732421875	0.2	COHERENT	1	0.653695251893623	0	0	0	RIGHT	16.0	1
32.50341796875	0.2	COHERENT	1	n/a	0	1	180	LEFT	20.0	0
34.22314453125	0.2	RANDOM	0	1.044427238975	0	0	0	NONE	23.0	1
35.9228515625	0.2	RANDOM	0	n/a	0	1	0	NONE	25.0	0
37.27294921875	0.2	COHERENT	1	n/a	0	1	180	LEFT	29.0	0
38.8828125	0.2	RANDOM	0	0.858783241269521	0	0	0	NONE	32.0	1
40.5927734375	0.2	RANDOM	0	n/a	0	1	0	NONE	35.0	0
42.50244140625	0.2	COHERENT	1	0.669049775121493	0	0	0	RIGHT	37.0	1
44.01220703125	0.2	RANDOM	0	0.750187449062651	0	0	0	NONE	40.0	1
45.47216796875	0.2	RANDOM	0	1.04890488695673	0	0	0	NONE	44.0	1
47.1220703125	0.2	RANDOM	0	1.07879923933706	0	0	0	NONE	46.0	1
48.8818359375	0.2	RANDOM	0	n/a	0	1	0	NONE	48.0	0
50.751953125	0.2	RANDOM	0	n/a	0	1	0	NONE	50.0	0
52.3916015625	0.2	COHERENT	1	0.590121947539046	0	0	0	RIGHT	53.0	1
53.7119140625	0.2	RANDOM	0	n/a	0	1	0	NONE	57.0	0
55.3115234375	0.2	RANDOM	0	0.764764707658287	0	0	0	NONE	60.0	1
56.8916015625	0.2	RANDOM	0	0.814500890458476	0	0	0	NONE	63.0	1
58.51123046875	0.2	COHERENT	1	0.629354945817795	0	0	180	LEFT	66.0	1
59.791015625	0.2	COHERENT	1	0.628167164720253	0	0	180	LEFT	70.0	1
61.26123046875	0.2	COHERENT	1	0.628999667964308	0	0	0	RIGHT	74.0	1
62.630859375	0.2	RANDOM	0	0.853807842071546	0	0	0	NONE	78.0	1
64.380859375	0.2	RANDOM	0	n/a	0	1	0	NONE	81.0	0
65.78076171875	0.2	COHERENT	1	0.778382987714394	0	0	0	RIGHT	85.0	1
67.25048828125	0.2	COHERENT	1	0.723250022639149	0	0	0	RIGHT	89.0	1
68.650390625	0.2	RANDOM	0	0.533017597874277	0	0	0	NONE	93.0	1
70.09033203125	0.2	COHERENT	1	0.659871109904088	0	0	180	LEFT	97.0	1
71.490234375	0.2	RANDOM	0	n/a	0	1	0	NONE	101.0	0
73.0703125	0.2	RANDOM	0	0.834383168825298	0	0	0	NONE	104.0	1
74.66015625	0.2	COHERENT	1	0.849205831748804	0	0	180	LEFT	107.0	1
76.10986328125	0.2	RANDOM	0	n/a	0	1	0	NONE	111.0	0
77.6796875	0.2	COHERENT	1	0.994813305562275	0	0	0	RIGHT	114.0	1
79.35986328125	0.2	RANDOM	0	0.742593196293456	0	0	0	NONE	116.0	1
80.9794921875	0.2	COHERENT	1	0.794367774457896	0	0	0	RIGHT	119.0	1
82.54931640625	0.2	COHERENT	1	0.774286878566272	0	0	0	RIGHT	122.0	1
84.1494140625	0.2	COHERENT	1	n/a	0	1	180	LEFT	125.0	0
85.8291015625	0.2	RANDOM	0	n/a	0	1	0	NONE	128.0	0
87.64892578125	0.2	RANDOM	0	0.974343022729954	0	0	0	NONE	131.0	1
89.31884765625	0.2	COHERENT	1	n/a	0	1	0	RIGHT	134.0	0
90.71875	0.2	RANDOM	0	1.03314045096431	0	0	0	NONE	138.0	1
92.44873046875	0.2	COHERENT	1	0.808692384315691	0	0	0	RIGHT	140.0	1
94.0087890625	0.2	RANDOM	0	n/a	0	1	0	NONE	143.0	0
95.95849609375	0.2	COHERENT	1	0.833268737359504	0	0	0	RIGHT	145.0	1
97.658203125	0.2	RANDOM	0	0.594301367382286	0	0	0	NONE	148.0	1
99.158203125	0.2	COHERENT	1	0.819078149052984	0	0	180	LEFT	152.0	1
100.6279296875	0.2	COHERENT	1	0.90785988107109	0	0	180	LEFT	156.0	1
102.2978515625	0.2	RANDOM	0	0.899619668568448	0	0	0	NONE	159.0	1
104.07763671875	0.2	RANDOM	0	0.769528509764314	0	0	0	NONE	162.0	1
105.52783203125	0.2	RANDOM	0	0.95331824081677	0	0	0	NONE	166.0	1
107.07763671875	0.2	RANDOM	0	0.938116755712144	0	0	0	NONE	169.0	1
108.83740234375	0.2	COHERENT	1	0.659744030909678	0	0	0	RIGHT	172.0	1
110.1875	0.2	RANDOM	0	1.0886054514167	0	0	0	NONE	176.0	1
112.0673828125	0.2	COHERENT	1	n/a	0	1	0	RIGHT	178.0	0
113.60693359375	0.2	RANDOM	0	n/a	0	1	0	NONE	181.0	0
115.1171875	0.2	COHERENT	1	0.838076005916264	0	0	0	RIGHT	184.0	1
116.6767578125	0.2	RANDOM	0	0.884815418515245	0	0	0	NONE	187.0	1
118.23681640625	0.2	RANDOM	0	0.753619185607931	0	0	0	NONE	190.0	1
119.88671875	0.2	RANDOM	0	0.779539678227593	0	0	0	NONE	193.0	1
121.44677734375	0.2	COHERENT	1	0.694320082103332	0	0	0	RIGHT	196.0	1
122.79638671875	0.2	COHERENT	1	0.838110115005293	0	0	180	LEFT	200.0	1
124.41650390625	0.2	COHERENT	1	0.744826586978888	0	0	0	RIGHT	203.0	1
126.0263671875	0.2	RANDOM	0	1.19460110477212	0	0	0	NONE	206.0	1
127.94580078125	0.2	RANDOM	0	0.994474931329023	0	0	0	NONE	208.0	1
129.7958984375	0.2	COHERENT	1	0.788128527876324	0	0	0	RIGHT	210.0	1
131.36572265625	0.2	COHERENT	1	n/a	0	1	0	RIGHT	213.0	0
133.2158203125	0.2	COHERENT	1	0.774737239275964	0	0	180	LEFT	215.0	1
134.8857421875	0.2	COHERENT	1	0.769562317002965	0	0	180	LEFT	218.0	1
136.525390625	0.2	COHERENT	1	n/a	0	1	180	LEFT	221.0	0
138.42529296875	0.2	RANDOM	0	0.96806000784818	0	0	0	NONE	222.0	1
140.2451171875	0.2	COHERENT	1	n/a	0	1	180	LEFT	225.0	0
142.0048828125	0.2	COHERENT	1	0.774573636390414	0	0	180	LEFT	228.0	1
143.6748046875	0.2	COHERENT	1	0.819340758852377	0	0	180	LEFT	231.0	1
145.31494140625	0.2	COHERENT	1	0.809165383802792	0	0	180	LEFT	234.0	1
146.89453125	0.2	RANDOM	0	0.945038787768681	0	0	0	NONE	237.0	1
148.66455078125	0.2	RANDOM	0	0.953387062693764	0	0	0	NONE	240.0	1
150.26416015625	0.2	COHERENT	1	0.718614808777602	0	0	0	RIGHT	243.0	1
151.7841796875	0.2	COHERENT	1	0.849332005192082	0	0	0	RIGHT	246.0	1
153.38427734375	0.2	COHERENT	1	n/a	0	1	0	RIGHT	249.0	0
155.1640625	0.2	COHERENT	1	0.690017205469303	0	0	0	RIGHT	252.0	1
156.6337890625	0.2	COHERENT	1	n/a	0	1	0	RIGHT	256.0	0
158.58349609375	0.2	COHERENT	1	0.799160252347065	0	0	180	LEFT	257.0	1
160.25341796875	0.2	RANDOM	0	0.905287512450741	0	0	0	NONE	260.0	1
161.75341796875	0.2	COHERENT	1	0.728085363276477	0	0	180	LEFT	264.0	1
163.193359375	0.2	RANDOM	0	n/a	0	1	0	NONE	268.0	0
165.22314453125	0.2	COHERENT	1	0.879586465031025	0	0	0	RIGHT	270.0	1
166.873046875	0.2	COHERENT	1	n/a	0	1	0	RIGHT	273.0	0
168.3330078125	0.2	RANDOM	0	1.05426635274216	0	0	0	NONE	277.0	1
170.06298828125	0.2	COHERENT	1	0.663061366174588	0	0	0	RIGHT	279.0	1
171.48291015625	0.2	COHERENT	1	n/a	0	1	180	LEFT	283.0	0
173.53271484375	0.2	RANDOM	0	0.849591898337167	0	0	0	NONE	284.0	1
175.13232421875	0.2	RANDOM	0	0.819539980077934	0	0	0	NONE	287.0	1
176.7021484375	0.2	RANDOM	0	0.928893114793027	0	0	0	NONE	290.0	1
178.5322265625	0.2	RANDOM	0	0.789954722448783	0	0	0	NONE	293.0	1
180.0419921875	0.2	RANDOM	0	0.814640345316548	0	0	0	NONE	296.0	1
181.69189453125	0.2	RANDOM	0	0.924591445561418	0	0	0	NONE	299.0	1
183.341796875	0.2	RANDOM	0	0.745362975037096	0	0	0	NONE	302.0	1
184.921875	0.2	COHERENT	1	0.649089317516882	0	0	180	LEFT	305.0	1
186.26171875	0.2	RANDOM	0	0.912914063207609	0	0	0	NONE	309.0	1
187.94140625	0.2	COHERENT	1	0.974764405807946	0	0	0	RIGHT	312.0	1
189.68115234375	0.2	RANDOM	0	0.769207944700611	0	0	0	NONE	315.0	1
191.1513671875	0.2	RANDOM	0	n/a	0	1	0	NONE	319.0	0
192.611328125	0.2	COHERENT	1	0.668107398351822	0	0	180	LEFT	323.0	1
194.0009765625	0.2	COHERENT	1	0.727986356364454	0	0	0	RIGHT	327.0	1
195.45068359375	0.2	COHERENT	1	0.785218992423324	0	0	0	RIGHT	331.0	1
196.9306640625	0.2	RANDOM	0	0.667555012225421	0	0	0	NONE	335.0	1
198.32080078125	0.2	COHERENT	1	0.854347550483908	0	0	0	RIGHT	339.0	1
199.95068359375	0.2	RANDOM	0	0.894138971898428	0	0	0	NONE	342.0	1
201.72021484375	0.2	COHERENT	1	0.804979926952001	0	0	180	LEFT	345.0	1
203.17041015625	0.2	COHERENT	1	0.718747019227521	0	0	180	LEFT	349.0	1
204.56005859375	0.2	COHERENT	1	n/a	0	1	0	RIGHT	353.0	0
206.52001953125	0.2	COHERENT	1	0.75408373328446	0	0	180	LEFT	354.0	1
208.1298828125	0.2	COHERENT	1	0.849852395182097	0	0	180	LEFT	357.0	1
209.85986328125	0.2	COHERENT	1	n/a	0	1	0	RIGHT	360.0	0
211.44970703125	0.2	COHERENT	1	0.694733918922793	0	0	180	LEFT	363.0	1
212.79931640625	0.2	COHERENT	1	n/a	0	1	180	LEFT	367.0	0
214.44921875	0.2	COHERENT	1	0.738340426815739	0	0	180	LEFT	370.0	1
215.91943359375	0.2	RANDOM	0	0.82410878686369	0	0	0	NONE	374.0	1
217.5693359375	0.2	COHERENT	1	n/a	0	1	180	LEFT	377.0	0
218.93896484375	0.2	RANDOM	0	0.657933532554125	0	0	0	NONE	381.0	1
220.19921875	0.2	COHERENT	1	n/a	0	1	180	LEFT	385.0	0
221.51904296875	0.2	RANDOM	0	0.878372121102075	0	0	0	NONE	389.0	1
223.06884765625	0.2	COHERENT	1	0.703256361495733	0	0	180	LEFT	392.0	1
224.61865234375	0.2	COHERENT	1	0.689960759455971	0	0	0	RIGHT	395.0	1
225.96875	0.2	RANDOM	0	0.737934739956472	0	0	0	NONE	399.0	1
227.55859375	0.2	RANDOM	0	0.669579824322682	0	0	0	NONE	402.0	1
228.92822265625	0.2	COHERENT	1	n/a	0	1	0	RIGHT	406.0	0
230.42822265625	0.2	RANDOM	0	0.874252769477607	0	0	0	NONE	410.0	1
231.9482421875	0.2	RANDOM	0	0.838070874459845	0	0	0	NONE	413.0	1
233.60791015625	0.2	COHERENT	1	0.734540734703842	0	0	0	RIGHT	416.0	1
235.19775390625	0.2	RANDOM	0	0.809582842825876	0	0	0	NONE	419.0	1
236.677734375	0.2	RANDOM	0	n/a	0	1	0	NONE	423.0	0
238.54736328125	0.2	RANDOM	0	0.833890247216004	0	0	0	NONE	424.0	1
240.03759765625	0.2	RANDOM	0	0.967885236499569	0	0	0	NONE	428.0	1
241.79736328125	0.2	RANDOM	0	n/a	0	1	0	NONE	431.0	0
243.25732421875	0.2	RANDOM	0	0.699609707507079	0	0	0	NONE	435.0	1
n/a	0.2	COHERENT	1	0.688249569862819	1	0	180	LEFT	n/a	1
n/a	0.2	RANDOM	0	0.763261492951642	1	0	0	NONE	n/a	1
n/a	0.2	RANDOM	0	0.614115125720673	1	0	0	NONE	n/a	1
248.8369140625	0.2	RANDOM	0	0.654844999849047	0	0	0	NONE	439.0	1
250.12646484375	0.2	COHERENT	1	0.703787316248963	0	0	180	LEFT	443.0	1
251.4765625	0.2	RANDOM	0	n/a	0	1	0	NONE	447.0	0
252.82666015625	0.2	COHERENT	1	0.633393401551075	0	0	180	LEFT	451.0	1
254.1962890625	0.2	COHERENT	1	0.704107579462288	0	0	180	LEFT	455.0	1
255.59619140625	0.2	RANDOM	0	0.73800929699064	0	0	0	NONE	459.0	1
n/a	0.2	COHERENT	1	0.719060339883981	1	0	180	LEFT	n/a	1
270.60498046875	0.2	COHERENT	1	0.80080443116276	0	0	0	RIGHT	462.0	1
272.30517578125	0.2	RANDOM	0	0.588938996045727	0	0	0	NONE	465.0	1
273.6748046875	0.2	COHERENT	1	0.584599595520558	0	0	180	LEFT	469.0	1
275.06494140625	0.2	RANDOM	0	0.759528509764095	0	0	0	NONE	473.0	1
276.66455078125	0.2	RANDOM	0	0.699333816293802	0	0	0	NONE	476.0	1
n/a	0.2	COHERENT	1	0.609124030304883	1	0	0	RIGHT	n/a	1
279.34423828125	0.2	RANDOM	0	0.712944550092288	0	0	0	NONE	480.0	1
280.734375	0.2	RANDOM	0	0.802627607232353	0	0	0	NONE	484.0	1
282.4140625	0.2	RANDOM	0	0.934549790214078	0	0	0	NONE	487.0	1
283.98388671875	0.2	RANDOM	0	0.733328201878066	0	0	0	NONE	490.0	1
285.5341796875	0.2	COHERENT	1	n/a	0	1	0	RIGHT	493.0	0
287.23388671875	0.2	COHERENT	1	0.550006640707579	0	0	180	LEFT	496.0	1
288.48388671875	0.2	COHERENT	1	n/a	0	1	180	LEFT	500.0	0
290.24365234375	0.2	COHERENT	1	0.647706842947628	0	0	0	RIGHT	502.0	1
291.50341796875	0.2	RANDOM	0	0.703470977089637	0	0	0	NONE	506.0	1
n/a	0.2	RANDOM	0	0.704250656524891	1	0	0	NONE	n/a	1
294.443359375	0.2	RANDOM	0	0.628694799118421	0	0	0	NONE	510.0	1
295.7431640625	0.2	RANDOM	0	n/a	0	1	0	NONE	514.0	0
297.4130859375	0.2	COHERENT	1	0.613470373388736	0	0	0	RIGHT	517.0	1
298.7431640625	0.2	COHERENT	1	0.89457424009197	0	0	180	LEFT	521.0	1
300.24267578125	0.2	RANDOM	0	0.598319599142087	0	0	0	NONE	525.0	1
301.70263671875	0.2	RANDOM	0	0.589130067312908	0	0	0	NONE	529.0	1
302.962890625	0.2	RANDOM	0	0.662979866582646	0	0	0	NONE	533.0	1
304.41259765625	0.2	COHERENT	1	0.58976033082763	0	0	0	RIGHT	537.0	1
305.87255859375	0.2	RANDOM	0	0.679499230281181	0	0	0	NONE	541.0	1
307.322265625	0.2	RANDOM	0	0.864301669232191	0	0	0	NONE	545.0	1
308.90234375	0.2	RANDOM	0	0.743749283104989	0	0	0	NONE	548.0	1
310.35205078125	0.2	COHERENT	1	0.668011711793042	0	0	0	RIGHT	552.0	1
311.7021484375	0.2	RANDOM	0	0.76282501735659	0	0	0	NONE	556.0	1
313.2919921875	0.2	RANDOM	0	0.744615895438983	0	0	0	NONE	559.0	1
314.7216796875	0.2	RANDOM	0	0.938328050951895	0	0	0	NONE	563.0	1
316.29150390625	0.2	COHERENT	1	0.60324489118284	0	0	180	LEFT	566.0	1
317.79150390625	0.2	COHERENT	1	0.529060641733849	0	0	180	LEFT	570.0	1
319.16162109375	0.2	COHERENT	1	0.763996196686094	0	0	180	LEFT	574.0	1
320.63134765625	0.2	COHERENT	1	n/a	0	1	0	RIGHT	578.0	0
322.35107421875	0.2	RANDOM	0	0.744482477587553	0	0	0	NONE	581.0	1
323.951171875	0.2	COHERENT	1	0.679300914606756	0	0	0	RIGHT	584.0	1
325.35107421875	0.2	COHERENT	1	0.684223188142823	0	0	0	RIGHT	588.0	1
326.880859375	0.2	RANDOM	0	0.639869600652673	0	0	0	NONE	591.0	1
n/a	0.2	COHERENT	1	0.67950677654062	1	0	0	RIGHT	n/a	1
n/a	0.2	RANDOM	0	n/a	1	1	0	NONE	n/a	0
331.6904296875	0.2	COHERENT	1	0.583843460412936	0	0	180	LEFT	594.0	1
332.900390625	0.2	RANDOM	0	0.813965709800868	0	0	0	NONE	598.0	1
334.5703125	0.2	RANDOM	0	0.78995894835316	0	0	0	NONE	601.0	1
336.240234375	0.2	COHERENT	1	0.823615261552732	0	0	180	LEFT	604.0	1
337.89013671875	0.2	RANDOM	0	0.874478251683286	0	0	0	NONE	607.0	1
339.509765625	0.2	COHERENT	1	0.629280992483473	0	0	0	RIGHT	610.0	1
341.009765625	0.2	COHERENT	1	0.694067735216777	0	0	180	LEFT	614.0	1
342.45947265625	0.2	COHERENT	1	0.569818286093323	0	0	180	LEFT	618.0	1
343.77978515625	0.2	RANDOM	0	0.659762443779982	0	0	0	NONE	622.0	1
345.279296875	0.2	COHERENT	1	n/a	0	1	0	RIGHT	626.0	0
347.37939453125	0.2	COHERENT	1	0.539270729572308	0	0	180	LEFT	627.0	1
348.62939453125	0.2	RANDOM	0	0.678085665127583	0	0	0	NONE	631.0	1
350.0390625	0.2	COHERENT	1	0.754963325182871	0	0	180	LEFT	635.0	1
351.5888671875	0.2	COHERENT	1	0.649638986989885	0	0	180	LEFT	638.0	1
352.8388671875	0.2	RANDOM	0	0.828644993812304	0	0	0	NONE	642.0	1
354.36865234375	0.2	COHERENT	1	0.578347067524192	0	0	180	LEFT	645.0	1
355.81884765625	0.2	COHERENT	1	0.644305291436467	0	0	180	LEFT	649.0	1
357.2783203125	0.2	RANDOM	0	1.05985722478817	0	0	0	NONE	653.0	1
359.07861328125	0.2	RANDOM	0	0.719641401793524	0	0	0	NONE	655.0	1
360.5380859375	0.2	COHERENT	1	0.599596426091921	0	0	180	LEFT	659.0	1
361.79833984375	0.2	COHERENT	1	0.638459657701787	0	0	0	RIGHT	663.0	1
363.05810546875	0.2	COHERENT	1	0.733308581605343	0	0	0	RIGHT	667.0	1
364.69775390625	0.2	COHERENT	1	n/a	0	1	0	RIGHT	670.0	0
366.2177734375	0.2	COHERENT	1	1.05473995592911	0	0	180	LEFT	673.0	1
367.91748046875	0.2	RANDOM	0	0.68751697908192	0	0	0	NONE	675.0	1
369.23779296875	0.2	COHERENT	1	0.703470977089637	0	0	180	LEFT	679.0	1
370.83740234375	0.2	RANDOM	0	n/a	0	1	0	NONE	682.0	0
372.787109375	0.2	RANDOM	0	n/a	0	1	0	NONE	683.0	0
374.18701171875	0.2	COHERENT	1	0.764923782788173	0	0	0	RIGHT	687.0	1
375.68701171875	0.2	RANDOM	0	0.684615291737828	0	0	0	NONE	691.0	1
377.23681640625	0.2	COHERENT	1	0.613485465905796	0	0	180	LEFT	694.0	1
378.537109375	0.2	COHERENT	1	0.603239156025666	0	0	180	LEFT	698.0	1
379.88671875	0.2	COHERENT	1	0.968837876181169	0	0	0	RIGHT	702.0	1
381.62646484375	0.2	COHERENT	1	0.654795798242958	0	0	0	RIGHT	705.0	1
383.00634765625	0.2	COHERENT	1	n/a	0	1	0	RIGHT	709.0	0
384.7265625	0.2	COHERENT	1	n/a	0	1	0	RIGHT	712.0	0
386.41650390625	0.2	COHERENT	1	0.614269069395959	0	0	180	LEFT	715.0	1
387.89599609375	0.2	COHERENT	1	0.624048114945253	0	0	180	LEFT	719.0	1
389.43603515625	0.2	RANDOM	0	0.689853602583753	0	0	0	NONE	722.0	1
391.01611328125	0.2	COHERENT	1	0.708540855443971	0	0	180	LEFT	725.0	1
392.40576171875	0.2	COHERENT	1	1.02345407347002	0	0	180	LEFT	729.0	1
394.265625	0.2	COHERENT	1	n/a	0	1	0	RIGHT	731.0	0
395.60546875	0.2	RANDOM	0	0.903029068187607	0	0	0	NONE	735.0	1
397.10546875	0.2	RANDOM	0	0.707938362159439	0	0	0	NONE	739.0	1
398.525390625	0.2	COHERENT	1	0.757765100062898	0	0	180	LEFT	743.0	1
400.10546875	0.2	RANDOM	0	0.744516284826204	0	0	0	NONE	746.0	1
401.64501953125	0.2	RANDOM	0	0.819316610823989	0	0	0	NONE	749.0	1
403.19482421875	0.2	COHERENT	1	0.714058377855508	0	0	0	RIGHT	752.0	1
404.6650390625	0.2	RANDOM	0	0.68980741948144	0	0	0	NONE	756.0	1
406.24462890625	0.2	RANDOM	0	0.63878022276549	0	0	0	NONE	759.0	1
407.7646484375	0.2	RANDOM	0	0.794500286757284	0	0	0	NONE	762.0	1
409.14453125	0.2	RANDOM	0	0.639161761598189	0	0	0	NONE	766.0	1
410.49462890625	0.2	COHERENT	1	0.527298137583784	0	0	0	RIGHT	770.0	1
411.6845703125	0.2	COHERENT	1	0.627984243411447	0	0	180	LEFT	774.0	1
413.13427734375	0.2	COHERENT	1	0.674739955929908	0	0	0	RIGHT	778.0	1
414.583984375	0.2	RANDOM	0	n/a	0	1	0	NONE	782.0	0
416.30419921875	0.2	RANDOM	0	0.774726976364946	0	0	0	NONE	785.0	1
417.833984375	0.2	COHERENT	1	0.858122189019014	0	0	0	RIGHT	788.0	1
419.48388671875	0.2	COHERENT	1	0.640043466449242	0	0	0	RIGHT	791.0	1
421.04345703125	0.2	COHERENT	1	0.699822813848186	0	0	180	LEFT	794.0	1
422.353515625	0.2	RANDOM	0	0.713139243563091	0	0	0	NONE	798.0	1
423.7734375	0.2	RANDOM	0	0.728453922544759	0	0	0	NONE	802.0	1
425.12353515625	0.2	COHERENT	1	0.683154034229119	0	0	180	LEFT	806.0	1
426.6630859375	0.2	COHERENT	1	0.510038334993624	0	0	180	LEFT	809.0	1
427.84326171875	0.2	RANDOM	0	0.822810226689398	0	0	0	NONE	813.0	1
429.283203125	0.2	RANDOM	0	0.638631410546623	0	0	0	NONE	817.0	1
430.73291015625	0.2	RANDOM	0	0.634558543873936	0	0	0	NONE	821.0	1
432.212890625	0.2	RANDOM	0	0.62935554951855	0	0	0	NONE	825.0	1
433.75244140625	0.2	COHERENT	1	n/a	0	1	180	LEFT	828.0	0
434.8828125	0.2	RANDOM	0	0.73401491140703	0	0	0	NONE	832.0	1
436.38232421875	0.2	COHERENT	1	0.464788855685583	0	0	0	RIGHT	836.0	1
437.7021484375	0.2	COHERENT	1	0.599738295753014	0	0	0	RIGHT	840.0	1
439.05224609375	0.2	RANDOM	0	0.68933170334185	0	0	0	NONE	844.0	1
440.59228515625	0.2	COHERENT	1	0.529278577680998	0	0	180	LEFT	847.0	1
441.84228515625	0.2	COHERENT	1	0.674061698209698	0	0	180	LEFT	851.0	1
443.1220703125	0.2	RANDOM	0	0.768004165534876	0	0	0	NONE	855.0	1
444.49169921875	0.2	RANDOM	0	0.757844184853639	0	0	0	NONE	859.0	1
446.01171875	0.2	RANDOM	0	0.64953515047273	0	0	0	NONE	862.0	1
447.54150390625	0.2	COHERENT	1	0.669341060701299	0	0	0	RIGHT	865.0	1
449.09130859375	0.2	RANDOM	0	1.11384979926879	0	0	0	NONE	868.0	1
451.01123046875	0.2	RANDOM	0	0.679973437169792	0	0	0	NONE	870.0	1
452.451171875	0.2	RANDOM	0	0.939794439916113	0	0	0	NONE	874.0	1
454.10107421875	0.2	RANDOM	0	0.624531679193751	0	0	0	NONE	877.0	1
455.5009765625	0.2	RANDOM	0	0.794458027709879	0	0	0	NONE	881.0	1
457.20068359375	0.2	RANDOM	0	0.708123094569601	0	0	0	NONE	884.0	1
458.58056640625	0.2	COHERENT	1	0.743989254127882	0	0	0	RIGHT	888.0	1
460.24072265625	0.2	COHERENT	1	0.770540010263176	0	0	180	LEFT	891.0	1
461.650390625	0.2	COHERENT	1	0.71733647257679	0	0	0	RIGHT	895.0	1
463.240234375	0.2	COHERENT	1	0.684361737450672	0	0	0	RIGHT	898.0	1
464.66015625	0.2	RANDOM	0	0.774231941803919	0	0	0	NONE	902.0	1
466.22021484375	0.2	RANDOM	0	0.760027166530563	0	0	0	NONE	905.0	1
467.64013671875	0.2	RANDOM	0	0.55881463370406	0	0	0	NONE	909.0	1
469.080078125	0.2	COHERENT	1	0.844717920855146	0	0	0	RIGHT	913.0	1
470.81005859375	0.2	COHERENT	1	0.699431615804315	0	0	0	RIGHT	916.0	1
472.3095703125	0.2	COHERENT	1	0.640027166531581	0	0	180	LEFT	920.0	1
473.57958984375	0.2	RANDOM	0	0.762001267771666	0	0	0	NONE	924.0	1
474.9794921875	0.2	RANDOM	0	0.792929155724778	0	0	0	NONE	928.0	1
476.54931640625	0.2	COHERENT	1	0.72468713211947	0	0	180	LEFT	931.0	1
478.16943359375	0.2	RANDOM	0	0.689479308159207	0	0	0	NONE	934.0	1
479.69921875	0.2	COHERENT	1	0.789765764134245	0	0	0	RIGHT	937.0	1
481.26904296875	0.2	RANDOM	0	0.983022729330514	0	0	0	NONE	940.0	1
483.138671875	0.2	COHERENT	1	0.724807570406483	0	0	0	RIGHT	943.0	1
484.48876953125	0.2	RANDOM	0	0.773716079567748	0	0	0	NONE	947.0	1
486.03857421875	0.2	RANDOM	0	0.624550092064055	0	0	0	NONE	950.0	1
487.45849609375	0.2	RANDOM	0	0.659268012919711	0	0	0	NONE	954.0	1
488.978515625	0.2	COHERENT	1	0.639073621297939	0	0	180	LEFT	957.0	1
490.2783203125	0.2	RANDOM	0	0.622881463370504	0	0	0	NONE	961.0	1
491.50830078125	0.2	RANDOM	0	0.577761477859895	0	0	0	NONE	965.0	1
n/a	0.2	RANDOM	0	0.689802891726686	1	0	0	NONE	n/a	1
514.15673828125	0.2	COHERENT	1	0.779839415617971	0	0	0	RIGHT	968.0	1
515.79638671875	0.2	COHERENT	1	0.689628120378075	0	0	0	RIGHT	971.0	1
517.3662109375	0.2	RANDOM	0	0.594590841860736	0	0	0	NONE	974.0	1
518.666015625	0.2	RANDOM	0	0.728239608802141	0	0	0	NONE	978.0	1
520.2158203125	0.2	RANDOM	0	0.554207190074521	0	0	0	NONE	981.0	1
521.48583984375	0.2	COHERENT	1	0.604838660991845	0	0	0	RIGHT	985.0	1
522.85595703125	0.2	RANDOM	0	0.769971324217295	0	0	0	NONE	989.0	1
524.3857421875	0.2	COHERENT	1	0.544248543572394	0	0	180	LEFT	992.0	1
525.73583984375	0.2	RANDOM	0	0.589471460049936	0	0	0	NONE	996.0	1
527.0556640625	0.2	COHERENT	1	0.564191493856924	0	0	180	LEFT	1000.0	1
528.435546875	0.2	COHERENT	1	0.564749615140499	0	0	0	RIGHT	1004.0	1
n/a	0.2	RANDOM	0	0.628823991065474	1	0	0	NONE	n/a	1
531.1552734375	0.2	COHERENT	1	0.684736937426351	0	0	0	RIGHT	1008.0	1
532.625	0.2	COHERENT	1	0.844451085151377	0	0	0	RIGHT	1012.0	1
534.2451171875	0.2	RANDOM	0	0.604243412115466	0	0	0	NONE	1015.0	1
535.44482421875	0.2	RANDOM	0	0.61809351323609	0	0	0	NONE	1019.0	1
536.94482421875	0.2	COHERENT	1	0.554957590026788	0	0	0	RIGHT	1023.0	1
538.14453125	0.2	COHERENT	1	0.587809170213404	0	0	0	RIGHT	1027.0	1
539.634765625	0.2	RANDOM	0	0.869587974282695	0	0	0	NONE	1031.0	1
541.34423828125	0.2	RANDOM	0	0.649310271966897	0	0	0	NONE	1034.0	1
542.734375	0.2	RANDOM	0	0.665257931117594	0	0	0	NONE	1038.0	1
544.21435546875	0.2	RANDOM	0	n/a	0	1	0	NONE	1042.0	0
545.60400390625	0.2	COHERENT	1	0.660774547979599	0	0	180	LEFT	1046.0	1
546.93408203125	0.2	RANDOM	0	0.994469498023136	0	0	0	NONE	1050.0	1
548.833984375	0.2	COHERENT	1	0.708074798514644	0	0	180	LEFT	1052.0	1
550.1337890625	0.2	COHERENT	1	0.708093815086613	0	0	180	LEFT	1056.0	1
551.7236328125	0.2	COHERENT	1	0.765011621238045	0	0	0	RIGHT	1059.0	1
553.09375	0.2	RANDOM	0	0.647923873343643	0	0	0	NONE	1063.0	1
554.59326171875	0.2	RANDOM	0	0.699671586827208	0	0	0	NONE	1067.0	1
556.0634765625	0.2	COHERENT	1	0.584551601315979	0	0	180	LEFT	1071.0	1
557.5234375	0.2	COHERENT	1	0.47441275015899	0	0	180	LEFT	1075.0	1
558.63330078125	0.2	COHERENT	1	0.553188445169326	0	0	180	LEFT	1079.0	1
559.86279296875	0.2	COHERENT	1	0.593047782909707	0	0	180	LEFT	1083.0	1
561.2431640625	0.2	COHERENT	1	n/a	0	1	0	RIGHT	1087.0	0
562.7626953125	0.2	RANDOM	0	0.529653777656677	0	0	0	NONE	1090.0	1
563.90283203125	0.2	RANDOM	0	0.648481994627218	0	0	0	NONE	1094.0	1
565.40283203125	0.2	COHERENT	1	0.719268012919201	0	0	180	LEFT	1098.0	1
566.87255859375	0.2	RANDOM	0	0.719009629026004	0	0	0	NONE	1102.0	1
568.322265625	0.2	RANDOM	0	0.654992906517691	0	0	0	NONE	1106.0	1
569.75244140625	0.2	RANDOM	0	0.634763802107045	0	0	0	NONE	1110.0	1
571.09228515625	0.2	COHERENT	1	0.788577077484661	0	0	180	LEFT	1114.0	1
572.671875	0.2	COHERENT	1	0.579324458933115	0	0	0	RIGHT	1117.0	1
573.9619140625	0.2	COHERENT	1	0.538206405264646	0	0	180	LEFT	1121.0	1
575.26171875	0.2	COHERENT	1	0.444995019469388	0	0	180	LEFT	1125.0	1
576.5419921875	0.2	COHERENT	1	0.444927103142618	0	0	0	RIGHT	1129.0	1
577.61181640625	0.2	RANDOM	0	0.593676537173451	0	0	0	NONE	1133.0	1
579.091796875	0.2	RANDOM	0	0.65951854870309	0	0	0	NONE	1137.0	1
580.41162109375	0.2	RANDOM	0	0.94807057261005	0	0	0	NONE	1141.0	1
582.111328125	0.2	COHERENT	1	0.669192248483341	0	0	180	LEFT	1144.0	1
583.63134765625	0.2	COHERENT	1	0.629872921005699	0	0	0	RIGHT	1147.0	1
584.861328125	0.2	COHERENT	1	0.828737661867308	0	0	180	LEFT	1151.0	1
586.4208984375	0.2	RANDOM	0	0.874604123275276	0	0	0	NONE	1154.0	1
588.1708984375	0.2	RANDOM	0	0.874488212743927	0	0	0	NONE	1157.0	1
589.9208984375	0.2	COHERENT	1	0.694132331190303	0	0	0	RIGHT	1160.0	1
591.20068359375	0.2	RANDOM	0	0.777976395303085	0	0	0	NONE	1164.0	1
592.890625	0.2	COHERENT	1	0.668732832261412	0	0	0	RIGHT	1167.0	1
594.41015625	0.2	RANDOM	0	1.04953062271761	0	0	0	NONE	1170.0	1
596.14013671875	0.2	COHERENT	1	0.793283226176754	0	0	0	RIGHT	1172.0	1
597.68017578125	0.2	COHERENT	1	0.619152404237866	0	0	0	RIGHT	1175.0	1
598.97998046875	0.2	COHERENT	1	0.582699749465064	0	0	180	LEFT	1179.0	1
600.35986328125	0.2	COHERENT	1	0.549553261493202	0	0	180	LEFT	1183.0	1
601.56005859375	0.2	COHERENT	1	0.638759395092166	0	0	180	LEFT	1187.0	1
603.02978515625	0.2	COHERENT	1	0.64449243864874	0	0	0	RIGHT	1191.0	1
604.509765625	0.2	RANDOM	0	0.829251411150835	0	0	0	NONE	1195.0	1
606.24951171875	0.2	RANDOM	0	0.620038334993296	0	0	0	NONE	1198.0	1
607.46923828125	0.2	RANDOM	0	0.627609948987811	0	0	0	NONE	1202.0	1
608.8193359375	0.2	RANDOM	0	0.544791874188377	0	0	0	NONE	1206.0	1
610.19921875	0.2	RANDOM	0	0.6945165866764	0	0	0	NONE	1210.0	1
611.7392578125	0.2	RANDOM	0	0.649281898035042	0	0	0	NONE	1213.0	1
613.26904296875	0.2	COHERENT	1	0.864041474236728	0	0	180	LEFT	1216.0	1
614.81884765625	0.2	COHERENT	1	0.887885236499642	0	0	0	RIGHT	1219.0	1
616.31884765625	0.2	COHERENT	1	n/a	0	1	0	RIGHT	1223.0	0
617.98876953125	0.2	RANDOM	0	0.92450572006419	0	0	0	NONE	1226.0	1
619.62841796875	0.2	RANDOM	0	0.874029098373285	0	0	0	NONE	1229.0	1
621.20849609375	0.2	COHERENT	1	0.768025596908956	0	0	0	RIGHT	1232.0	1
622.84814453125	0.2	RANDOM	0	0.764927706843082	0	0	0	NONE	1235.0	1
624.39794921875	0.2	RANDOM	0	0.864742672582906	0	0	0	NONE	1238.0	1
625.9677734375	0.2	RANDOM	0	0.837492227354232	0	0	0	NONE	1241.0	1
627.56787109375	0.2	COHERENT	1	0.604251260225283	0	0	0	RIGHT	1244.0	1
628.8779296875	0.2	COHERENT	1	0.638178635032091	0	0	0	RIGHT	1248.0	1
630.31787109375	0.2	RANDOM	0	0.649972229768537	0	0	0	NONE	1252.0	1
631.767578125	0.2	RANDOM	0	0.58979806212119	0	0	0	NONE	1256.0	1
633.09765625	0.2	COHERENT	1	0.659560505901027	0	0	180	LEFT	1260.0	1
634.51708984375	0.2	RANDOM	0	0.659455160131984	0	0	0	NONE	1264.0	1
636.01708984375	0.2	COHERENT	1	0.599215792810355	0	0	0	RIGHT	1268.0	1
637.45703125	0.2	RANDOM	0	0.645014036041175	0	0	0	NONE	1272.0	1
638.97705078125	0.2	RANDOM	0	0.634760481752892	0	0	0	NONE	1275.0	1
640.27685546875	0.2	RANDOM	0	0.543584774668489	0	0	0	NONE	1279.0	1
641.4267578125	0.2	COHERENT	1	0.73847112801468	0	0	180	LEFT	1283.0	1
643.0068359375	0.2	RANDOM	0	0.659277973980352	0	0	0	NONE	1286.0	1
644.29638671875	0.2	COHERENT	1	0.683197198829475	0	0	180	LEFT	1290.0	1
645.7666015625	0.2	RANDOM	0	0.685017054544915	0	0	0	NONE	1294.0	1
647.26611328125	0.2	RANDOM	0	0.574596878866942	0	0	0	NONE	1298.0	1
648.71630859375	0.2	COHERENT	1	0.644544960608982	0	0	180	LEFT	1302.0	1
650.13623046875	0.2	COHERENT	1	0.904015816957326	0	0	0	RIGHT	1306.0	1
651.7958984375	0.2	RANDOM	0	0.630372181472922	0	0	0	NONE	1309.0	1
653.26611328125	0.2	RANDOM	0	0.698967068126876	0	0	0	NONE	1313.0	1
654.86572265625	0.2	RANDOM	0	0.76974282350875	0	0	0	NONE	1316.0	1
656.255859375	0.2	RANDOM	0	0.668517009266907	0	0	0	NONE	1320.0	1
657.525390625	0.2	COHERENT	1	0.49842434121183	0	0	0	RIGHT	1324.0	1
658.82568359375	0.2	COHERENT	1	0.539414712185135	0	0	0	RIGHT	1328.0	1
659.9755859375	0.2	RANDOM	0	0.593149506474219	0	0	0	NONE	1332.0	1
661.3251953125	0.2	RANDOM	0	0.680450964412557	0	0	0	NONE	1336.0	1
662.85498046875	0.2	RANDOM	0	0.577904856771966	0	0	0	NONE	1339.0	1
664.30517578125	0.2	RANDOM	0	0.734515379274853	0	0	0	NONE	1343.0	1
665.64501953125	0.2	RANDOM	0	0.717489208850566	0	0	0	NONE	1347.0	1
667.1650390625	0.2	RANDOM	0	0.640219747049741	0	0	0	NONE	1350.0	1
668.64453125	0.2	RANDOM	0	0.63903196595129	0	0	0	NONE	1354.0	1
669.91455078125	0.2	RANDOM	0	0.822667753327551	0	0	0	NONE	1358.0	1
671.564453125	0.2	RANDOM	0	0.93453318844513	0	0	0	NONE	1361.0	1
673.3544921875	0.2	RANDOM	0	0.810194693471203	0	0	0	NONE	1364.0	1
674.7841796875	0.2	RANDOM	0	1.02225331280806	0	0	0	NONE	1368.0	1
676.72412109375	0.2	COHERENT	1	0.529976153822645	0	0	180	LEFT	1370.0	1
678.083984375	0.2	RANDOM	0	0.750688520631229	0	0	0	NONE	1374.0	1
679.583984375	0.2	COHERENT	1	0.669689999697766	0	0	180	LEFT	1378.0	1
681.00390625	0.2	COHERENT	1	0.579504965437991	0	0	0	RIGHT	1382.0	1
682.19384765625	0.2	RANDOM	0	n/a	0	1	0	NONE	1386.0	0
683.6533203125	0.2	COHERENT	1	0.559069093543258	0	0	180	LEFT	1390.0	1
684.99365234375	0.2	COHERENT	1	0.614988982462819	0	0	180	LEFT	1394.0	1
686.3232421875	0.2	COHERENT	1	0.694677472909461	0	0	180	LEFT	1398.0	1
687.79345703125	0.2	COHERENT	1	0.674607443629611	0	0	180	LEFT	1402.0	1
689.193359375	0.2	COHERENT	1	0.624485496091438	0	0	180	LEFT	1406.0	1
690.68310546875	0.2	COHERENT	1	0.779208246551207	0	0	0	RIGHT	1410.0	1
692.14306640625	0.2	COHERENT	1	0.617992393371424	0	0	0	RIGHT	1414.0	1
693.56298828125	0.2	RANDOM	0	0.679785988107142	0	0	0	NONE	1418.0	1
695.1025390625	0.2	COHERENT	1	0.849648344350499	0	0	0	RIGHT	1421.0	1
696.8525390625	0.2	RANDOM	0	0.909440067614923	0	0	0	NONE	1424.0	1
698.4326171875	0.2	RANDOM	0	0.712937003832849	0	0	0	NONE	1427.0	1
699.92236328125	0.2	RANDOM	0	0.585011621238664	0	0	0	NONE	1431.0	1
701.25244140625	0.2	COHERENT	1	0.710750399951394	0	0	0	RIGHT	1435.0	1
702.6220703125	0.2	COHERENT	1	0.598425850463173	0	0	180	LEFT	1439.0	1
704.0419921875	0.2	COHERENT	1	0.64446859247164	0	0	0	RIGHT	1443.0	1
705.4619140625	0.2	COHERENT	1	0.534292915572223	0	0	180	LEFT	1447.0	1
706.66162109375	0.2	COHERENT	1	0.558240514353201	0	0	0	RIGHT	1451.0	1
707.91162109375	0.2	RANDOM	0	0.777835129342748	0	0	0	NONE	1455.0	1
709.3115234375	0.2	RANDOM	0	0.574037550182766	0	0	0	NONE	1459.0	1
710.69140625	0.2	COHERENT	1	0.699723505085785	0	0	0	RIGHT	1463.0	1
712.05126953125	0.2	COHERENT	1	0.508485013130667	0	0	180	LEFT	1467.0	1
713.30126953125	0.2	RANDOM	0	n/a	0	1	0	NONE	1471.0	0
714.5810546875	0.2	RANDOM	0	0.793838027106176	0	0	0	NONE	1475.0	1
716.201171875	0.2	RANDOM	0	0.605023393402007	0	0	0	NONE	1478.0	1
717.68115234375	0.2	COHERENT	1	0.744611367684229	0	0	0	RIGHT	1482.0	1
719.10107421875	0.2	COHERENT	1	0.583611941199706	0	0	180	LEFT	1486.0	1
720.470703125	0.2	COHERENT	1	0.714317969151125	0	0	0	RIGHT	1490.0	1
721.8505859375	0.2	COHERENT	1	0.643182710012297	0	0	180	LEFT	1494.0	1
723.30029296875	0.2	RANDOM	0	1.0696133297115	0	0	0	NONE	1498.0	1
725.22021484375	0.2	COHERENT	1	0.649776027045846	0	0	180	LEFT	1500.0	1
726.5400390625	0.2	COHERENT	1	0.783512028735458	0	0	180	LEFT	1504.0	1
727.9599609375	0.2	COHERENT	1	0.613174861903644	0	0	0	RIGHT	1508.0	1
n/a	0.2	COHERENT	1	0.619092939720758	1	0	0	RIGHT	n/a	1
760.73779296875	0.2	COHERENT	1	0.480213408191958	0	0	180	LEFT	1511.0	1
761.9375	0.2	COHERENT	1	0.475027619306275	0	0	180	LEFT	1515.0	1
n/a	0.2	RANDOM	0	0.568919677623853	1	0	0	NONE	n/a	1
n/a	0.2	COHERENT	1	n/a	1	1	0	RIGHT	n/a	0
765.75732421875	0.2	RANDOM	0	0.544507833016723	0	0	0	NONE	1519.0	1
767.037109375	0.2	RANDOM	0	0.594481270186407	0	0	0	NONE	1523.0	1
768.4072265625	0.2	RANDOM	0	0.505217483171691	0	0	0	NONE	1527.0	1
769.537109375	0.2	COHERENT	1	0.592931570527071	0	0	0	RIGHT	1531.0	1
770.876953125	0.2	RANDOM	0	0.649919405958826	0	0	0	NONE	1535.0	1
772.39697265625	0.2	COHERENT	1	n/a	0	1	0	RIGHT	1538.0	0
773.45654296875	0.2	COHERENT	1	0.478526970327948	0	0	180	LEFT	1542.0	1
774.6767578125	0.2	COHERENT	1	0.504510247818871	0	0	0	RIGHT	1546.0	1
775.9765625	0.2	RANDOM	0	0.639212774306543	0	0	0	NONE	1550.0	1
777.49658203125	0.2	COHERENT	1	n/a	0	1	0	RIGHT	1553.0	0
778.9462890625	0.2	COHERENT	1	0.53964683509912	0	0	0	RIGHT	1557.0	1
780.3662109375	0.2	RANDOM	0	0.584718826406061	0	0	0	NONE	1561.0	1
781.8359375	0.2	COHERENT	1	0.424485496090711	0	0	180	LEFT	1565.0	1
782.94580078125	0.2	COHERENT	1	0.618453318845241	0	0	0	RIGHT	1569.0	1
784.40576171875	0.2	RANDOM	0	0.714121766427525	0	0	0	NONE	1573.0	1
785.81591796875	0.2	RANDOM	0	0.767951341725166	0	0	0	NONE	1577.0	1
787.35546875	0.2	COHERENT	1	0.52485224425709	0	0	0	RIGHT	1580.0	1
788.75537109375	0.2	RANDOM	0	0.554635817561575	0	0	0	NONE	1584.0	1
790.05517578125	0.2	COHERENT	1	0.559497117329556	0	0	0	RIGHT	1588.0	1
791.25537109375	0.2	RANDOM	0	0.633351444354048	0	0	0	NONE	1592.0	1
792.64501953125	0.2	COHERENT	1	0.479175344864416	0	0	180	LEFT	1596.0	1
794.0048828125	0.2	RANDOM	0	0.699955326149393	0	0	0	NONE	1600.0	1
795.4150390625	0.2	RANDOM	0	0.668757583989645	0	0	0	NONE	1604.0	1
796.875	0.2	COHERENT	1	0.54964291104443	0	0	180	LEFT	1608.0	1
798.06494140625	0.2	RANDOM	0	0.623511425034849	0	0	0	NONE	1612.0	1
799.5146484375	0.2	COHERENT	1	0.514248241722271	0	0	180	LEFT	1616.0	1
800.89453125	0.2	RANDOM	0	0.47514775574291	0	0	0	NONE	1620.0	1
802.03466796875	0.2	COHERENT	1	0.647779287029152	0	0	0	RIGHT	1624.0	1
803.41455078125	0.2	COHERENT	1	0.569726523589452	0	0	180	LEFT	1628.0	1
804.814453125	0.2	RANDOM	0	0.574618913942686	0	0	0	NONE	1632.0	1
806.00439453125	0.2	RANDOM	0	0.608451507742757	0	0	0	NONE	1636.0	1
807.2041015625	0.2	COHERENT	1	0.618228440339408	0	0	180	LEFT	1640.0	1
808.47412109375	0.2	RANDOM	0	0.64789036795537	0	0	0	NONE	1644.0	1
809.923828125	0.2	COHERENT	1	0.629916387454614	0	0	0	RIGHT	1648.0	1
811.45361328125	0.2	COHERENT	1	0.559703582963266	0	0	180	LEFT	1651.0	1
812.79345703125	0.2	RANDOM	0	0.644499381206515	0	0	0	NONE	1655.0	1
814.1435546875	0.2	RANDOM	0	0.678366989646747	0	0	0	NONE	1659.0	1
815.54345703125	0.2	COHERENT	1	0.564115729422156	0	0	0	RIGHT	1663.0	1
816.7734375	0.2	COHERENT	1	0.533094267861998	0	0	180	LEFT	1667.0	1
818.11328125	0.2	RANDOM	0	0.579824624950561	0	0	0	NONE	1671.0	1
819.39306640625	0.2	RANDOM	0	0.758730115608159	0	0	0	NONE	1675.0	1
820.8330078125	0.2	RANDOM	0	0.632490265325941	0	0	0	NONE	1679.0	1
n/a	0.2	COHERENT	1	0.434431766730086	1	0	180	LEFT	n/a	1
823.36279296875	0.2	RANDOM	0	0.63878776902402	0	0	0	NONE	1683.0	1
824.6826171875	0.2	COHERENT	1	0.51298862024214	0	0	180	LEFT	1687.0	1
826.08251953125	0.2	RANDOM	0	0.844788251984937	0	0	0	NONE	1691.0	1
827.72265625	0.2	RANDOM	0	0.549645627697828	0	0	0	NONE	1694.0	1
828.95263671875	0.2	COHERENT	1	0.543481240001711	0	0	180	LEFT	1698.0	1
830.232421875	0.2	COHERENT	1	0.459114974795739	0	0	180	LEFT	1702.0	1
831.60205078125	0.2	COHERENT	1	0.619048869570179	0	0	0	RIGHT	1706.0	1
833.0419921875	0.2	COHERENT	1	0.394917142080885	0	0	180	LEFT	1710.0	1
834.341796875	0.2	RANDOM	0	0.62974191795638	0	0	0	NONE	1714.0	1
835.8720703125	0.2	COHERENT	1	0.50955929849988	0	0	180	LEFT	1717.0	1
837.2216796875	0.2	RANDOM	0	0.709407165926677	0	0	0	NONE	1721.0	1
838.6416015625	0.2	COHERENT	1	0.468245645808565	0	0	180	LEFT	1725.0	1
839.71142578125	0.2	COHERENT	1	0.567923269642961	0	0	0	RIGHT	1729.0	1
840.96142578125	0.2	RANDOM	0	0.592949379697529	0	0	0	NONE	1733.0	1
842.28125	0.2	COHERENT	1	0.944696187630143	0	0	0	RIGHT	1737.0	1
844.111328125	0.2	RANDOM	0	0.589473573002579	0	0	0	NONE	1740.0	1
845.56103515625	0.2	RANDOM	0	0.518995743909727	0	0	0	NONE	1744.0	1
846.68115234375	0.2	COHERENT	1	0.538193727549697	0	0	180	LEFT	1748.0	1
848.07080078125	0.2	RANDOM	0	0.819015364181723	0	0	0	NONE	1752.0	1
849.48095703125	0.2	RANDOM	0	0.607482266292209	0	0	0	NONE	1756.0	1
850.95068359375	0.2	RANDOM	0	0.589637175888129	0	0	0	NONE	1760.0	1
852.1904296875	0.2	RANDOM	0	0.558453922545596	0	0	0	NONE	1764.0	1
853.45068359375	0.2	COHERENT	1	0.508425246763181	0	0	0	RIGHT	1768.0	1
854.76025390625	0.2	COHERENT	1	0.580561139787278	0	0	180	LEFT	1772.0	1
856.1103515625	0.2	RANDOM	0	0.583966917201906	0	0	0	NONE	1776.0	1
857.490234375	0.2	RANDOM	0	0.489597029792094	0	0	0	NONE	1780.0	1
858.89013671875	0.2	RANDOM	0	0.450767907271256	0	0	0	NONE	1784.0	1
860.0400390625	0.2	RANDOM	0	0.457469286728156	0	0	0	NONE	1788.0	1
861.14013671875	0.2	COHERENT	1	0.478328352803146	0	0	180	LEFT	1792.0	1
862.47998046875	0.2	RANDOM	0	0.659261674061781	0	0	0	NONE	1796.0	1
863.8095703125	0.2	COHERENT	1	0.472991035045197	0	0	180	LEFT	1800.0	1
865.0595703125	0.2	RANDOM	0	0.624896314407124	0	0	0	NONE	1804.0	1
866.4296875	0.2	COHERENT	1	0.509690301548289	0	0	0	RIGHT	1808.0	1
867.66943359375	0.2	RANDOM	0	0.974435992635335	0	0	0	NONE	1812.0	1
869.54931640625	0.2	COHERENT	1	0.499001479066465	0	0	180	LEFT	1815.0	1
870.8994140625	0.2	RANDOM	0	0.689014156781013	0	0	0	NONE	1819.0	1
872.18896484375	0.2	COHERENT	1	0.637939871411618	0	0	0	RIGHT	1823.0	1
873.4990234375	0.2	RANDOM	0	0.582712427178194	0	0	0	NONE	1827.0	1
874.8388671875	0.2	RANDOM	0	0.848650427117718	0	0	0	NONE	1831.0	1
876.3388671875	0.2	COHERENT	1	0.638454828096656	0	0	180	LEFT	1835.0	1
877.7685546875	0.2	COHERENT	1	0.630123456789988	0	0	0	RIGHT	1839.0	1
879.15869140625	0.2	COHERENT	1	0.620034712789675	0	0	180	LEFT	1843.0	1
880.62841796875	0.2	RANDOM	0	0.530552084276678	0	0	0	NONE	1847.0	1
881.7783203125	0.2	RANDOM	0	0.6136762353226	0	0	0	NONE	1851.0	1
883.248046875	0.2	RANDOM	0	0.469495004376768	0	0	0	NONE	1855.0	1
884.4580078125	0.2	RANDOM	0	0.458860816806919	0	0	0	NONE	1859.0	1
885.828125	0.2	RANDOM	0	0.439211868755592	0	0	0	NONE	1863.0	1
887.16796875	0.2	COHERENT	1	0.589956533550321	0	0	180	LEFT	1867.0	1
888.36767578125	0.2	COHERENT	1	0.627730387274823	0	0	180	LEFT	1871.0	1
889.7275390625	0.2	COHERENT	1	0.419681246038635	0	0	0	RIGHT	1875.0	1
890.78759765625	0.2	RANDOM	0	0.673455884572832	0	0	0	NONE	1879.0	1
892.33740234375	0.2	COHERENT	1	0.394410335356042	0	0	180	LEFT	1882.0	1
893.5673828125	0.2	COHERENT	1	0.349178061516795	0	0	180	LEFT	1886.0	1
894.66748046875	0.2	RANDOM	0	0.669941742883566	0	0	0	NONE	1890.0	1
896.0673828125	0.2	COHERENT	1	0.614737239277019	0	0	0	RIGHT	1894.0	1
897.50732421875	0.2	COHERENT	1	0.414644873072575	0	0	0	RIGHT	1898.0	1
898.55712890625	0.2	COHERENT	1	0.523433245796696	0	0	180	LEFT	1902.0	1
899.95703125	0.2	COHERENT	1	0.765439946873812	0	0	0	RIGHT	1906.0	1
901.38671875	0.2	RANDOM	0	0.612907724350407	0	0	0	NONE	1910.0	1
902.60693359375	0.2	RANDOM	0	0.667861692172664	0	0	0	NONE	1914.0	1
903.9267578125	0.2	RANDOM	0	0.637884029098132	0	0	0	NONE	1918.0	1
905.20654296875	0.2	RANDOM	0	0.6976552265387	0	0	0	NONE	1922.0	1
906.56640625	0.2	RANDOM	0	0.738465996558261	0	0	0	NONE	1926.0	1
908.0263671875	0.2	COHERENT	1	0.524421201967925	0	0	0	RIGHT	1930.0	1
909.29638671875	0.2	COHERENT	1	0.519115578495985	0	0	0	RIGHT	1934.0	1
910.64599609375	0.2	RANDOM	0	0.604916840230544	0	0	0	NONE	1938.0	1
911.99609375	0.2	RANDOM	0	0.64086299012979	0	0	0	NONE	1942.0	1
913.505859375	0.2	COHERENT	1	0.469367019831225	0	0	0	RIGHT	1945.0	1
914.7158203125	0.2	RANDOM	0	n/a	0	1	0	NONE	1949.0	0
916.015625	0.2	COHERENT	1	0.633384949741412	0	0	0	RIGHT	1953.0	1
917.48583984375	0.2	RANDOM	0	n/a	0	1	0	NONE	1957.0	0
918.5556640625	0.2	RANDOM	0	n/a	0	1	0	NONE	1961.0	0
920.35546875	0.2	COHERENT	1	0.578716834193074	0	0	180	LEFT	1962.0	1
921.84521484375	0.2	COHERENT	1	0.539339249599834	0	0	0	RIGHT	1966.0	1
923.09521484375	0.2	RANDOM	0	0.544410637206056	0	0	0	NONE	1970.0	1
924.47509765625	0.2	COHERENT	1	0.664199040116728	0	0	0	RIGHT	1974.0	1
925.9150390625	0.2	COHERENT	1	0.604981436204071	0	0	0	RIGHT	1978.0	1
927.21484375	0.2	COHERENT	1	0.487986960065427	0	0	180	LEFT	1982.0	1
928.4150390625	0.2	RANDOM	0	0.727617797096173	0	0	0	NONE	1986.0	1
929.78466796875	0.2	COHERENT	1	0.588660388179051	0	0	0	RIGHT	1990.0	1
931.19482421875	0.2	COHERENT	1	0.424405505749746	0	0	0	RIGHT	1994.0	1
932.234375	0.2	COHERENT	1	0.498101663195484	0	0	180	LEFT	1998.0	1
933.50439453125	0.2	COHERENT	1	0.503875154698108	0	0	180	LEFT	2002.0	1
934.75439453125	0.2	COHERENT	1	0.399893144978705	0	0	180	LEFT	2006.0	1
935.93408203125	0.2	RANDOM	0	n/a	0	1	0	NONE	2010.0	0
937.06396484375	0.2	RANDOM	0	0.738658878927708	0	0	0	NONE	2014.0	1
938.72412109375	0.2	RANDOM	0	0.509272238824451	0	0	0	NONE	2017.0	1
940.00390625	0.2	COHERENT	1	0.72422530109543	0	0	0	RIGHT	2021.0	1
941.57373046875	0.2	RANDOM	0	0.700036523891868	0	0	0	NONE	2024.0	1
943.1435546875	0.2	RANDOM	0	1.00485948866481	0	0	0	NONE	2027.0	1
945.0234375	0.2	RANDOM	0	0.774583899302343	0	0	0	NONE	2029.0	1
946.67333984375	0.2	COHERENT	1	0.624382565124506	0	0	0	RIGHT	2032.0	1
948.12353515625	0.2	RANDOM	0	0.844083431435138	0	0	0	NONE	2036.0	1
949.783203125	0.2	COHERENT	1	0.539939629931723	0	0	0	RIGHT	2039.0	1
950.94287109375	0.2	COHERENT	1	0.672917685411448	0	0	180	LEFT	2043.0	1
952.51318359375	0.2	RANDOM	0	0.689634157384717	0	0	0	NONE	2046.0	1
953.8828125	0.2	COHERENT	1	0.584209906727665	0	0	180	LEFT	2050.0	1
955.36279296875	0.2	RANDOM	0	0.688352500829751	0	0	0	NONE	2054.0	1
956.802734375	0.2	COHERENT	1	0.549997283346784	0	0	0	RIGHT	2058.0	1
958.03271484375	0.2	RANDOM	0	0.702899876241645	0	0	0	NONE	2062.0	1
959.38232421875	0.2	RANDOM	0	0.617481058891826	0	0	0	NONE	2066.0	1
960.75244140625	0.2	COHERENT	1	0.619581333574388	0	0	180	LEFT	2070.0	1
