onset	duration	trial_type	trial_type_id	response_time	bad_epoch	outliers	event_num	response_accuracy
36.14111328125	0.2	SCRAMBLED	0	0.61229889220931	0	0	1.0	1
37.46142578125	0.2	FACES	1	0.408308732530713	0	0	9.0	1
38.52099609375	0.2	FACES	1	0.409912161550437	0	0	17.0	1
39.73095703125	0.2	FACES	1	0.347065712819585	0	0	25.0	1
40.78076171875	0.2	SCRAMBLED	0	0.434844697998869	0	0	33.0	1
41.9111328125	0.2	SCRAMBLED	0	n/a	0	1	41.0	0
43.0908203125	0.2	FACES	1	0.476529626610954	0	0	49.0	1
44.41064453125	0.2	SCRAMBLED	0	0.421367080201435	0	0	57.0	1
45.75048828125	0.2	FACES	1	0.45112227957361	0	0	65.0	1
47.12060546875	0.2	SCRAMBLED	0	0.477063599867051	0	0	73.0	1
48.400390625	0.2	SCRAMBLED	0	0.456837513960636	0	0	81.0	1
49.55029296875	0.2	SCRAMBLED	0	0.452490869027315	0	0	89.0	1
50.97021484375	0.2	SCRAMBLED	0	0.306209967098312	0	0	97.0	1
52.2001953125	0.2	SCRAMBLED	0	0.3814017929908	0	0	105.0	1
53.31982421875	0.2	FACES	1	0.47322979866567	0	0	113.0	1
54.7197265625	0.2	FACES	1	0.416056325273985	0	0	121.0	1
56.10986328125	0.2	FACES	1	0.340751003652258	0	0	129.0	1
57.169921875	0.2	SCRAMBLED	0	0.449756104923381	0	0	137.0	1
58.31982421875	0.2	SCRAMBLED	0	0.349584955778937	0	0	145.0	1
59.48974609375	0.2	SCRAMBLED	0	0.324336080171179	0	0	153.0	1
60.689453125	0.2	FACES	1	0.404300461831099	0	0	161.0	1
61.83935546875	0.2	FACES	1	0.391090283437734	0	0	169.0	1
63.09912109375	0.2	FACES	1	0.455047239578562	0	0	177.0	1
64.4091796875	0.2	FACES	1	0.385892722388235	0	0	185.0	1
65.75927734375	0.2	FACES	1	0.397593347218844	0	0	193.0	1
67.048828125	0.2	FACES	1	0.342548522442939	0	0	201.0	1
68.2490234375	0.2	SCRAMBLED	0	0.504319176552144	0	0	209.0	1
69.4189453125	0.2	FACES	1	0.438039783874956	0	0	217.0	1
70.6689453125	0.2	FACES	1	0.388771167255527	0	0	225.0	1
71.7685546875	0.2	SCRAMBLED	0	0.47479730749501	0	0	233.0	1
73.068359375	0.2	FACES	1	0.414589030758634	0	0	241.0	1
74.1982421875	0.2	FACES	1	0.370567478644261	0	0	249.0	1
75.45849609375	0.2	FACES	1	0.376382323643611	0	0	257.0	1
76.55810546875	0.2	FACES	1	0.377320474508451	0	0	265.0	1
77.75830078125	0.2	SCRAMBLED	0	0.566073530743779	0	0	273.0	1
79.0283203125	0.2	SCRAMBLED	0	0.365887892783121	0	0	281.0	1
80.328125	0.2	FACES	1	0.418828216970269	0	0	289.0	1
81.5078125	0.2	SCRAMBLED	0	0.545571553623631	0	0	297.0	1
82.94775390625	0.2	FACES	1	0.478485616831222	0	0	305.0	1
84.2275390625	0.2	SCRAMBLED	0	0.48627516677243	0	0	313.0	1
85.3974609375	0.2	FACES	1	0.325898759395386	0	0	321.0	1
86.5576171875	0.2	FACES	1	n/a	0	1	329.0	0
87.74755859375	0.2	FACES	1	0.381573847686468	0	0	337.0	1
88.87744140625	0.2	SCRAMBLED	0	0.417601799028034	0	0	345.0	1
90.13720703125	0.2	FACES	1	0.417505810619332	0	0	353.0	1
91.26708984375	0.2	FACES	1	0.470378520329632	0	0	361.0	1
92.64697265625	0.2	FACES	1	0.401087566784554	0	0	369.0	1
93.84716796875	0.2	FACES	1	0.344032418726783	0	0	377.0	1
95.056640625	0.2	SCRAMBLED	0	0.45706359986707	0	0	385.0	1
96.306640625	0.2	FACES	1	0.485694104862887	0	0	393.0	1
97.56689453125	0.2	SCRAMBLED	0	0.512289232998683	0	0	401.0	1
98.75634765625	0.2	SCRAMBLED	0	0.434479760934664	0	0	409.0	1
100.12646484375	0.2	FACES	1	0.455190014790787	0	0	417.0	1
101.486328125	0.2	SCRAMBLED	0	0.437033716683345	0	0	425.0	1
102.896484375	0.2	FACES	1	0.35186875547106	0	0	433.0	1
104.1962890625	0.2	FACES	1	0.403681366778073	0	0	441.0	1
105.30615234375	0.2	FACES	1	0.450587400766381	0	0	449.0	1
106.666015625	0.2	SCRAMBLED	0	0.328315675088106	0	0	457.0	1
107.916015625	0.2	FACES	1	0.400281324519256	0	0	465.0	1
109.2158203125	0.2	SCRAMBLED	0	0.308083854025426	0	0	473.0	1
110.2958984375	0.2	SCRAMBLED	0	0.475867366959392	0	0	481.0	1
111.69580078125	0.2	SCRAMBLED	0	0.364719430106106	0	0	489.0	1
112.83544921875	0.2	FACES	1	0.549619970418917	0	0	497.0	1
114.08544921875	0.2	FACES	1	0.372361978930712	0	0	505.0	1
115.2353515625	0.2	SCRAMBLED	0	0.474890277400391	0	0	513.0	1
116.4150390625	0.2	FACES	1	0.421097829696009	0	0	521.0	1
117.75537109375	0.2	FACES	1	0.403841045609624	0	0	529.0	1
118.93505859375	0.2	FACES	1	0.408821878113031	0	0	537.0	1
120.1748046875	0.2	FACES	1	0.328588245947685	0	0	545.0	1
121.43505859375	0.2	FACES	1	0.35843792447713	0	0	553.0	1
122.6748046875	0.2	FACES	1	0.36830933623105	0	0	561.0	1
123.974609375	0.2	SCRAMBLED	0	0.563193576624599	0	0	569.0	1
125.3544921875	0.2	FACES	1	0.421039572579957	0	0	577.0	1
126.564453125	0.2	FACES	1	0.437822149778185	0	0	585.0	1
127.64453125	0.2	FACES	1	0.502604968456581	0	0	593.0	1
129.01416015625	0.2	FACES	1	0.380330526125363	0	0	601.0	1
130.3642578125	0.2	SCRAMBLED	0	0.51733737812765	0	0	609.0	1
131.6640625	0.2	SCRAMBLED	0	0.391129222131894	0	0	617.0	1
132.98388671875	0.2	FACES	1	0.419038002958132	0	0	625.0	1
134.1640625	0.2	SCRAMBLED	0	0.476802197470533	0	0	633.0	1
135.48388671875	0.2	SCRAMBLED	0	0.511597693863223	0	0	641.0	1
136.65380859375	0.2	FACES	1	0.559533943071074	0	0	649.0	1
138.12353515625	0.2	FACES	1	0.453308279754765	0	0	657.0	1
139.37353515625	0.2	SCRAMBLED	0	0.510090856952957	0	0	665.0	1
140.58349609375	0.2	FACES	1	0.39108696308358	0	0	673.0	1
141.83349609375	0.2	SCRAMBLED	0	0.510001509251651	0	0	681.0	1
143.123046875	0.2	SCRAMBLED	0	0.393739322043984	0	0	689.0	1
144.203125	0.2	FACES	1	0.527731292825138	0	0	697.0	1
145.6728515625	0.2	SCRAMBLED	0	0.480354372301917	0	0	705.0	1
146.89306640625	0.2	SCRAMBLED	0	0.440269552355858	0	0	713.0	1
148.14306640625	0.2	SCRAMBLED	0	0.426090434362322	0	0	721.0	1
149.5126953125	0.2	SCRAMBLED	0	0.381946029158826	0	0	729.0	1
150.83251953125	0.2	SCRAMBLED	0	0.347734915028923	0	0	737.0	1
151.86279296875	0.2	FACES	1	0.497302665338793	0	0	745.0	1
153.04248046875	0.2	FACES	1	0.487391711189503	0	0	753.0	1
154.3623046875	0.2	FACES	1	0.528305412176451	0	0	761.0	1
155.63232421875	0.2	SCRAMBLED	0	0.520122249388805	0	0	769.0	1
156.912109375	0.2	SCRAMBLED	0	0.487903347520387	0	0	777.0	1
158.22216796875	0.2	FACES	1	0.51072474267221	0	0	785.0	1
159.421875	0.2	SCRAMBLED	0	0.640330526125126	0	0	793.0	1
160.8818359375	0.2	FACES	1	0.487367865012402	0	0	801.0	1
162.19189453125	0.2	SCRAMBLED	0	0.478231458842856	0	0	809.0	1
163.421875	0.2	FACES	1	0.451104470403607	0	0	817.0	1
164.6416015625	0.2	SCRAMBLED	0	0.48763862477017	0	0	825.0	1
165.861328125	0.2	SCRAMBLED	0	0.38274774366846	0	0	833.0	1
167.21142578125	0.2	SCRAMBLED	0	0.398575266382977	0	0	841.0	1
168.5615234375	0.2	FACES	1	0.463487880708726	0	0	849.0	1
169.93115234375	0.2	SCRAMBLED	0	0.42722841015393	0	0	857.0	1
171.291015625	0.2	FACES	1	0.495937396239242	0	0	865.0	1
172.68115234375	0.2	SCRAMBLED	0	0.571988590057117	0	0	873.0	1
173.98095703125	0.2	SCRAMBLED	0	0.462797850825609	0	0	881.0	1
175.380859375	0.2	SCRAMBLED	0	0.513618883757317	0	0	889.0	1
176.70068359375	0.2	FACES	1	0.583344501795636	0	0	897.0	1
178.1005859375	0.2	SCRAMBLED	0	0.587233541610203	0	0	905.0	1
179.5302734375	0.2	SCRAMBLED	0	0.431059494702367	0	0	913.0	1
180.75048828125	0.2	SCRAMBLED	0	0.414871864529687	0	0	921.0	1
181.8701171875	0.2	FACES	1	0.519750067916448	0	0	929.0	1
183.25	0.2	SCRAMBLED	0	0.55856983307649	0	0	937.0	1
184.47021484375	0.2	SCRAMBLED	0	0.487497056959	0	0	945.0	1
185.68994140625	0.2	SCRAMBLED	0	0.472385523257799	0	0	953.0	1
187.1201171875	0.2	FACES	1	0.483057442119843	0	0	961.0	1
188.56982421875	0.2	FACES	1	0.492877237465564	0	0	969.0	1
189.95947265625	0.2	FACES	1	0.374065622264425	0	0	977.0	1
191.07958984375	0.2	SCRAMBLED	0	0.492466720999801	0	0	985.0	1
192.3095703125	0.2	SCRAMBLED	0	0.502378278848937	0	0	993.0	1
193.54931640625	0.2	SCRAMBLED	0	0.822103896888166	0	0	1001.0	1
195.12939453125	0.2	SCRAMBLED	0	0.508037369072554	0	0	1007.0	1
196.3193359375	0.2	FACES	1	0.507940776962641	0	0	1015.0	1
197.76904296875	0.2	FACES	1	0.468999064263699	0	0	1023.0	1
199.01904296875	0.2	SCRAMBLED	0	0.492543692836989	0	0	1031.0	1
n/a	0.2	SCRAMBLED	0	0.497317456005476	1	0	n/a	1
n/a	0.2	FACES	1	0.476799178967212	1	0	n/a	1
202.53857421875	0.2	SCRAMBLED	0	0.517097708955589	0	0	1039.0	1
203.78857421875	0.2	FACES	1	0.505112439252571	0	0	1047.0	1
205.16845703125	0.2	SCRAMBLED	0	0.55575145642797	0	0	1055.0	1
206.45849609375	0.2	FACES	1	0.497551993721572	0	0	1063.0	1
207.75830078125	0.2	SCRAMBLED	0	0.598372724803085	0	0	1071.0	1
209.2783203125	0.2	SCRAMBLED	0	0.488244438407492	0	0	1077.0	1
210.55810546875	0.2	FACES	1	0.542030245404476	0	0	1085.0	1
211.77783203125	0.2	SCRAMBLED	0	0.5478514292613	0	0	1093.0	1
213.2080078125	0.2	SCRAMBLED	0	0.483803918017657	0	0	1101.0	1
214.34765625	0.2	FACES	1	0.669557789248302	0	0	1109.0	1
215.7275390625	0.2	SCRAMBLED	0	0.4183328805575	0	0	1117.0	1
217.02783203125	0.2	SCRAMBLED	0	0.410227293307798	0	0	1125.0	1
218.2275390625	0.2	SCRAMBLED	0	0.593033897793248	0	0	1133.0	1
219.67724609375	0.2	FACES	1	0.40396057834505	0	0	1141.0	1
221.01708984375	0.2	SCRAMBLED	0	0.402581424129949	0	0	1149.0	1
222.38720703125	0.2	SCRAMBLED	0	0.488585227444219	0	0	1157.0	1
223.787109375	0.2	FACES	1	0.472279271936713	0	0	1165.0	1
225.0869140625	0.2	FACES	1	0.488212744121483	0	0	1173.0	1
243.49560546875	0.2	FACES	1	0.602537052129719	0	0	1177.0	1
244.79541015625	0.2	FACES	1	0.437191584412631	0	0	1185.0	1
n/a	0.2	SCRAMBLED	0	0.408389628422356	1	0	n/a	1
247.35546875	0.2	FACES	1	0.47133206556191	0	0	1193.0	1
248.6650390625	0.2	FACES	1	0.491254188173571	0	0	1201.0	1
250.0048828125	0.2	SCRAMBLED	0	0.544050529747437	0	0	1209.0	1
251.3251953125	0.2	SCRAMBLED	0	0.448865042711532	0	0	1217.0	1
252.5546875	0.2	FACES	1	0.608680612152511	0	0	1225.0	1
253.82470703125	0.2	FACES	1	0.45248332276833	0	0	1233.0	1
254.95458984375	0.2	SCRAMBLED	0	0.455336110356257	0	0	1241.0	1
256.04443359375	0.2	SCRAMBLED	0	0.35723173050792	0	0	1249.0	1
257.32470703125	0.2	SCRAMBLED	0	0.523047179208334	0	0	1257.0	1
258.6943359375	0.2	FACES	1	0.486967913308945	0	0	1265.0	1
260.1142578125	0.2	SCRAMBLED	0	0.503586283920413	0	0	1273.0	1
261.33447265625	0.2	SCRAMBLED	0	0.427555615925485	0	0	1281.0	1
262.6640625	0.2	FACES	1	0.413348124000095	0	0	1289.0	1
263.8642578125	0.2	SCRAMBLED	0	0.434241902864869	0	0	1297.0	1
265.25390625	0.2	FACES	1	0.382051676778701	0	0	1305.0	1
266.50390625	0.2	SCRAMBLED	0	0.43901385493109	0	0	1313.0	1
267.7138671875	0.2	SCRAMBLED	0	0.383673216819261	0	0	1321.0	1
269.03369140625	0.2	FACES	1	0.438547194301009	0	0	1329.0	1
270.18359375	0.2	FACES	1	0.432336019801369	0	0	1337.0	1
271.37353515625	0.2	SCRAMBLED	0	0.457297533882866	0	0	1345.0	1
272.7734375	0.2	SCRAMBLED	0	0.414029400223626	0	0	1353.0	1
273.84326171875	0.2	FACES	1	0.340824956986125	0	0	1361.0	1
275.10302734375	0.2	FACES	1	0.438631108695972	0	0	1369.0	1
276.26318359375	0.2	SCRAMBLED	0	0.507635002565621	0	0	1377.0	1
277.56298828125	0.2	SCRAMBLED	0	0.394415164961174	0	0	1385.0	1
278.79296875	0.2	SCRAMBLED	0	0.323321863020283	0	0	1393.0	1
279.99267578125	0.2	FACES	1	0.308087476229502	0	0	1401.0	1
281.04296875	0.2	SCRAMBLED	0	0.472996166500707	0	0	1409.0	1
282.3427734375	0.2	FACES	1	0.377820338676429	0	0	1417.0	1
283.66259765625	0.2	SCRAMBLED	0	0.304619215792627	0	0	1425.0	1
284.6123046875	0.2	FACES	1	0.33255818165344	0	0	1435.0	1
285.6123046875	0.2	FACES	1	0.512498717135713	0	0	1444.0	1
287.0322265625	0.2	SCRAMBLED	0	0.408269793836098	0	0	1452.0	1
288.40234375	0.2	FACES	1	0.462035980560813	0	0	1460.0	1
289.5322265625	0.2	FACES	1	0.537721633614183	0	0	1468.0	1
290.921875	0.2	SCRAMBLED	0	0.463736303540827	0	0	1476.0	1
292.2919921875	0.2	SCRAMBLED	0	0.577520299435491	0	0	1484.0	1
293.69189453125	0.2	SCRAMBLED	0	0.41726070814093	0	0	1492.0	1
294.99169921875	0.2	FACES	1	0.366253735398004	0	0	1500.0	1
296.21142578125	0.2	FACES	1	0.461088170485255	0	0	1508.0	1
297.62158203125	0.2	SCRAMBLED	0	0.487842977452146	0	0	1516.0	1
299.01123046875	0.2	SCRAMBLED	0	0.422709408675473	0	0	1524.0	1
300.19140625	0.2	FACES	1	0.622612816565379	0	0	1532.0	1
301.78125	0.2	SCRAMBLED	0	0.548041896827726	0	0	1538.0	1
303.03125	0.2	SCRAMBLED	0	0.498074194814308	0	0	1546.0	1
304.31103515625	0.2	FACES	1	0.509007516073325	0	0	1554.0	1
305.630859375	0.2	SCRAMBLED	0	0.379807721331872	0	0	1562.0	1
306.66064453125	0.2	FACES	1	0.521680400856894	0	0	1570.0	1
308.1005859375	0.2	FACES	1	0.463505086177975	0	0	1578.0	1
309.25048828125	0.2	SCRAMBLED	0	0.522317606930301	0	0	1586.0	1
310.48046875	0.2	FACES	1	0.471008481994886	0	0	1594.0	1
311.8203125	0.2	SCRAMBLED	0	0.487034924084583	0	0	1602.0	1
313.14013671875	0.2	FACES	1	0.448964351474388	0	0	1610.0	1
314.490234375	0.2	FACES	1	0.613575719158234	0	0	1618.0	1
315.93994140625	0.2	FACES	1	0.50651574149515	0	0	1626.0	1
317.33984375	0.2	FACES	1	0.383315826013586	0	0	1634.0	1
318.48974609375	0.2	SCRAMBLED	0	0.53722297684817	0	0	1642.0	1
319.8095703125	0.2	SCRAMBLED	0	0.455065350599398	0	0	1650.0	1
320.9599609375	0.2	FACES	1	0.506823628844813	0	0	1658.0	1
322.20947265625	0.2	FACES	1	0.401787255878389	0	0	1666.0	1
323.37939453125	0.2	FACES	1	0.431465785263754	0	0	1674.0	1
324.6494140625	0.2	FACES	1	0.369068489842903	0	0	1682.0	1
325.70947265625	0.2	SCRAMBLED	0	0.497223278698129	0	0	1690.0	1
326.9091796875	0.2	SCRAMBLED	0	0.512092728425159	0	0	1698.0	1
328.09912109375	0.2	SCRAMBLED	0	0.563031181140104	0	0	1706.0	1
329.529296875	0.2	FACES	1	0.563771016330065	0	0	1714.0	1
330.7490234375	0.2	FACES	1	0.442709710525378	0	0	1722.0	1
331.96875	0.2	SCRAMBLED	0	0.482505055993443	0	0	1730.0	1
333.1689453125	0.2	SCRAMBLED	0	0.468321712095076	0	0	1738.0	1
334.548828125	0.2	SCRAMBLED	0	0.488027709861399	0	0	1746.0	1
335.91845703125	0.2	SCRAMBLED	0	0.364970267741228	0	0	1754.0	1
337.1083984375	0.2	SCRAMBLED	0	0.358825198467002	0	0	1762.0	1
338.33837890625	0.2	SCRAMBLED	0	0.35371366476511	0	0	1770.0	1
339.658203125	0.2	FACES	1	0.493525913851954	0	0	1778.0	1
341.0283203125	0.2	FACES	1	0.418271906788505	0	0	1786.0	1
342.30810546875	0.2	FACES	1	0.433142865766968	0	0	1794.0	1
343.55810546875	0.2	FACES	1	0.389025928944193	0	0	1802.0	1
344.80810546875	0.2	SCRAMBLED	0	n/a	0	1	1810.0	0
345.84765625	0.2	FACES	1	0.556603579944749	0	0	1818.0	1
347.2275390625	0.2	FACES	1	0.387508527272075	0	0	1826.0	1
348.5478515625	0.2	SCRAMBLED	0	0.451298258323732	0	0	1834.0	1
349.69775390625	0.2	SCRAMBLED	0	0.451840683389037	0	0	1842.0	1
350.947265625	0.2	FACES	1	0.424007968848855	0	0	1850.0	1
352.24755859375	0.2	FACES	1	0.408797730085553	0	0	1858.0	1
353.4375	0.2	SCRAMBLED	0	0.477772344471305	0	0	1866.0	1
354.5673828125	0.2	SCRAMBLED	0	0.437516073530787	0	0	1874.0	1
355.93701171875	0.2	SCRAMBLED	0	0.392307947719473	0	0	1882.0	1
357.0068359375	0.2	SCRAMBLED	0	0.438270699387431	0	0	1890.0	1
358.3369140625	0.2	FACES	1	0.504060792658947	0	0	1898.0	1
359.52685546875	0.2	FACES	1	0.436912976546409	0	0	1906.0	1
360.70654296875	0.2	SCRAMBLED	0	0.502755893627636	0	0	1914.0	1
362.08642578125	0.2	FACES	1	0.528545081348511	0	0	1922.0	1
363.396484375	0.2	FACES	1	0.527371789067274	0	0	1930.0	1
364.67626953125	0.2	FACES	1	0.452227051827776	0	0	1938.0	1
365.79638671875	0.2	FACES	1	0.402080654411293	0	0	1946.0	1
367.14599609375	0.2	FACES	1	0.373970237556023	0	0	1954.0	1
368.1962890625	0.2	SCRAMBLED	0	0.414873977481875	0	0	1962.0	1
369.39599609375	0.2	SCRAMBLED	0	0.403717890669668	0	0	1970.0	1
370.59619140625	0.2	FACES	1	0.441247547465991	0	0	1978.0	1
371.69580078125	0.2	SCRAMBLED	0	0.538959521868946	0	0	1986.0	1
373.185546875	0.2	FACES	1	0.506118506444182	0	0	1994.0	1
374.3955078125	0.2	SCRAMBLED	0	0.468028917262927	0	0	2002.0	1
375.61572265625	0.2	FACES	1	0.442306740318145	0	0	2010.0	1
376.71533203125	0.2	FACES	1	0.460576232303993	0	0	2018.0	1
377.96533203125	0.2	SCRAMBLED	0	0.454538621750999	0	0	2026.0	1
379.08544921875	0.2	FACES	1	0.462503244891195	0	0	2034.0	1
380.42529296875	0.2	FACES	1	0.438263756829656	0	0	2042.0	1
381.52490234375	0.2	SCRAMBLED	0	n/a	0	1	2050.0	0
382.84521484375	0.2	SCRAMBLED	0	0.54286033384642	0	0	2058.0	1
384.125	0.2	SCRAMBLED	0	0.392777023152121	0	0	2066.0	1
385.19482421875	0.2	FACES	1	0.486634670530293	0	0	2074.0	1
n/a	0.2	SCRAMBLED	0	0.397499471761876	1	0	n/a	1
n/a	0.2	SCRAMBLED	0	0.512296779257213	1	0	n/a	1
389.0244140625	0.2	FACES	1	0.547252256331376	0	0	2082.0	1
390.24462890625	0.2	SCRAMBLED	0	0.575010715687313	0	0	2090.0	1
391.6845703125	0.2	SCRAMBLED	0	0.408636542002569	0	0	2098.0	1
392.89404296875	0.2	SCRAMBLED	0	0.368527574028576	0	0	2106.0	1
394.0439453125	0.2	FACES	1	0.427322285610899	0	0	2114.0	1
395.38427734375	0.2	SCRAMBLED	0	0.498296960367043	0	0	2122.0	1
396.5341796875	0.2	FACES	1	0.452115065350426	0	0	2130.0	1
397.9140625	0.2	FACES	1	0.517969452745092	0	0	2138.0	1
399.1240234375	0.2	FACES	1	0.516805517824196	0	0	2146.0	1
400.4736328125	0.2	FACES	1	0.708489842735617	0	0	2154.0	1
401.92333984375	0.2	FACES	1	0.75747472003377	0	0	2162.0	1
403.55322265625	0.2	SCRAMBLED	0	0.572268405324849	0	0	2168.0	1
404.84326171875	0.2	SCRAMBLED	0	0.657095596003273	0	0	2176.0	1
406.39306640625	0.2	FACES	1	0.678966766276972	0	0	2182.0	1
407.8232421875	0.2	SCRAMBLED	0	0.697720728062905	0	0	2190.0	1
409.36279296875	0.2	FACES	1	0.728548099852105	0	0	2196.0	1
410.94287109375	0.2	SCRAMBLED	0	0.758260134625289	0	0	2202.0	1
412.66259765625	0.2	SCRAMBLED	0	0.847826677533249	0	0	2207.0	1
414.3125	0.2	FACES	1	0.952804189682865	0	0	2213.0	1
416.03271484375	0.2	SCRAMBLED	0	0.836310785112801	0	0	2218.0	1
417.732421875	0.2	SCRAMBLED	0	0.73834404902027	0	0	2224.0	1
419.38232421875	0.2	SCRAMBLED	0	0.707229315705263	0	0	2230.0	1
421.02197265625	0.2	FACES	1	0.628050650487694	0	0	2236.0	1
422.3720703125	0.2	SCRAMBLED	0	0.586931389417259	0	0	2244.0	1
423.7919921875	0.2	FACES	1	0.727682091218867	0	0	2252.0	1
425.2216796875	0.2	FACES	1	0.861348667330731	0	0	2260.0	1
426.9716796875	0.2	SCRAMBLED	0	0.794150140360216	0	0	2265.0	1
428.57177734375	0.2	SCRAMBLED	0	0.659016571583834	0	0	2271.0	1
430.09130859375	0.2	SCRAMBLED	0	0.717800114703095	0	0	2277.0	1
431.54150390625	0.2	FACES	1	0.897569802891667	0	0	2285.0	1
433.2509765625	0.2	SCRAMBLED	0	1.03744936460498	0	0	2290.0	1
435.10107421875	0.2	FACES	1	0.662968094418375	0	0	2294.0	1
436.55078125	0.2	FACES	1	0.677053336955851	0	0	2302.0	1
437.95068359375	0.2	FACES	1	0.806770503184453	0	0	2310.0	1
n/a	0.2	FACES	1	0.42068308732496	1	0	n/a	1
478.27783203125	0.2	SCRAMBLED	0	0.432592592592755	0	0	2317.0	1
479.4677734375	0.2	SCRAMBLED	0	0.508356726734746	0	0	2325.0	1
n/a	0.2	FACES	1	0.361328141507784	1	0	n/a	1
n/a	0.2	SCRAMBLED	0	0.5032645114552	1	0	n/a	1
483.3671875	0.2	FACES	1	0.533078269793805	0	0	2333.0	1
484.66748046875	0.2	FACES	1	0.457941078813292	0	0	2341.0	1
486.00732421875	0.2	FACES	1	0.542755289926845	0	0	2349.0	1
487.30712890625	0.2	SCRAMBLED	0	0.503512028736168	0	0	2357.0	1
488.70703125	0.2	FACES	1	0.507051224003135	0	0	2365.0	1
490.13671875	0.2	FACES	1	0.457058166561183	0	0	2373.0	1
491.32666015625	0.2	SCRAMBLED	0	0.562777023151739	0	0	2381.0	1
492.6064453125	0.2	FACES	1	0.553777958887622	0	0	2389.0	1
493.87646484375	0.2	FACES	1	0.532035678710599	0	0	2397.0	1
495.306640625	0.2	FACES	1	0.341512572067131	0	0	2405.0	1
496.396484375	0.2	FACES	1	0.567298439433671	0	0	2413.0	1
497.6962890625	0.2	FACES	1	0.537461136768343	0	0	2421.0	1
499.01611328125	0.2	SCRAMBLED	0	0.462914666908091	0	0	2429.0	1
n/a	0.2	FACES	1	0.428869268616836	1	0	n/a	1
n/a	0.2	FACES	1	0.596698964653115	1	0	n/a	1
502.74609375	0.2	SCRAMBLED	0	0.492538561381025	0	0	2437.0	1
504.0458984375	0.2	SCRAMBLED	0	0.41847505206897	0	0	2445.0	1
505.28564453125	0.2	FACES	1	0.482265084971004	0	0	2453.0	1
506.41552734375	0.2	FACES	1	0.711069757614041	0	0	2461.0	1
507.83544921875	0.2	FACES	1	0.771898034954575	0	0	2469.0	1
509.3251953125	0.2	FACES	1	0.751588940203419	0	0	2477.0	1
511.03515625	0.2	FACES	1	0.773481240001274	0	0	2482.0	1
512.55517578125	0.2	FACES	1	0.842034169458657	0	0	2488.0	1
514.09521484375	0.2	SCRAMBLED	0	0.713080986447039	0	0	2494.0	1
515.5048828125	0.2	SCRAMBLED	0	0.827975187902211	0	0	2502.0	1
517.1650390625	0.2	SCRAMBLED	0	0.679541187479117	0	0	2508.0	1
518.74462890625	0.2	FACES	1	0.613463128981039	0	0	2514.0	1
520.0947265625	0.2	SCRAMBLED	0	0.732226749977144	0	0	2522.0	1
521.5146484375	0.2	FACES	1	0.867061486914736	0	0	2530.0	1
523.13427734375	0.2	SCRAMBLED	0	0.716800688218882	0	0	2536.0	1
524.814453125	0.2	SCRAMBLED	0	0.548726191554124	0	0	2542.0	1
526.31396484375	0.2	FACES	1	0.482488152374117	0	0	2549.0	1
527.5341796875	0.2	FACES	1	0.427343113284678	0	0	2557.0	1
528.65380859375	0.2	FACES	1	0.436936520873132	0	0	2565.0	1
529.923828125	0.2	SCRAMBLED	0	0.583062573575717	0	0	2573.0	1
531.15380859375	0.2	FACES	1	0.771929125539828	0	0	2581.0	1
532.68359375	0.2	FACES	1	0.962820791452032	0	0	2587.0	1
534.49365234375	0.2	SCRAMBLED	0	0.942441063720707	0	0	2592.0	1
536.193359375	0.2	FACES	1	0.911209816173141	0	0	2598.0	1
537.76318359375	0.2	SCRAMBLED	0	0.806813969633822	0	0	2604.0	1
539.52294921875	0.2	FACES	1	0.733785203296065	0	0	2609.0	1
n/a	0.2	SCRAMBLED	0	0.60268224214451	1	0	n/a	1
542.5830078125	0.2	SCRAMBLED	0	0.85432400615764	0	0	2616.0	1
544.142578125	0.2	FACES	1	0.882250596154336	0	0	2622.0	1
545.8125	0.2	SCRAMBLED	0	0.844078299979174	0	0	2628.0	1
547.40234375	0.2	FACES	1	0.746598750339672	0	0	2634.0	1
549.00244140625	0.2	FACES	1	0.743399136707922	0	0	2640.0	1
550.67236328125	0.2	FACES	1	0.818431283769314	0	0	2646.0	1
552.251953125	0.2	FACES	1	0.96019771197416	0	0	2652.0	1
554.14208984375	0.2	FACES	1	0.957542636360813	0	0	2657.0	1
555.94189453125	0.2	FACES	1	0.99731504120291	0	0	2662.0	1
557.8916015625	0.2	SCRAMBLED	0	0.688406833891804	0	0	2667.0	1
559.341796875	0.2	SCRAMBLED	0	0.668315675088706	0	0	2675.0	1
560.88134765625	0.2	SCRAMBLED	0	0.579121615503027	0	0	2681.0	1
562.33154296875	0.2	FACES	1	0.718986990250414	0	0	2689.0	1
563.81103515625	0.2	FACES	1	0.902453439584406	0	0	2697.0	1
565.6611328125	0.2	SCRAMBLED	0	0.598533611035691	0	0	2702.0	1
567.03125	0.2	SCRAMBLED	0	0.657262821093354	0	0	2710.0	1
568.62109375	0.2	FACES	1	0.69807932627009	0	0	2716.0	1
570.03076171875	0.2	FACES	1	0.881880829484999	0	0	2724.0	1
571.75048828125	0.2	FACES	1	0.765688671556745	0	0	2729.0	1
573.42041015625	0.2	SCRAMBLED	0	0.748504331552795	0	0	2735.0	1
574.84033203125	0.2	SCRAMBLED	0	0.757238371215863	0	0	2743.0	1
576.54052734375	0.2	FACES	1	0.694082525884369	0	0	2748.0	1
578.01025390625	0.2	SCRAMBLED	0	0.657938362160166	0	0	2756.0	1
579.43994140625	0.2	FACES	1	0.688709589784594	0	0	2764.0	1
581.0400390625	0.2	SCRAMBLED	0	0.608506142654733	0	0	2770.0	1
582.5400390625	0.2	SCRAMBLED	0	0.783225270911316	0	0	2777.0	1
584.07958984375	0.2	SCRAMBLED	0	0.917049111050801	0	0	2783.0	1
585.77978515625	0.2	SCRAMBLED	0	0.813777657037463	0	0	2789.0	1
587.3095703125	0.2	FACES	1	0.88173533761983	0	0	2795.0	1
588.91943359375	0.2	FACES	1	0.676248000241685	0	0	2801.0	1
590.41943359375	0.2	SCRAMBLED	0	0.718285188204391	0	0	2808.0	1
592.0693359375	0.2	SCRAMBLED	0	0.704023966916793	0	0	2814.0	1
593.4189453125	0.2	FACES	1	0.811960517975422	0	0	2822.0	1
595.19873046875	0.2	SCRAMBLED	0	0.578693893568015	0	0	2827.0	1
596.53857421875	0.2	FACES	1	0.57247396540788	0	0	2835.0	1
597.8388671875	0.2	SCRAMBLED	0	0.642372845542923	0	0	2843.0	1
599.2685546875	0.2	FACES	1	0.748049443086529	0	0	2851.0	1
600.6787109375	0.2	FACES	1	0.792807811886632	0	0	2859.0	1
602.228515625	0.2	FACES	1	0.681754052340693	0	0	2865.0	1
603.58837890625	0.2	SCRAMBLED	0	0.702542787286802	0	0	2873.0	1
604.9580078125	0.2	SCRAMBLED	0	0.737309306045972	0	0	2881.0	1
606.578125	0.2	FACES	1	0.60822844033919	0	0	2887.0	1
608.02783203125	0.2	SCRAMBLED	0	0.60524585710391	0	0	2895.0	1
609.47802734375	0.2	SCRAMBLED	0	0.537682996769945	0	0	2903.0	1
610.82763671875	0.2	SCRAMBLED	0	0.618738869268782	0	0	2911.0	1
612.41748046875	0.2	FACES	1	0.452500528237579	0	0	2917.0	1
613.6875	0.2	SCRAMBLED	0	0.519164780102074	0	0	2925.0	1
615.1474609375	0.2	SCRAMBLED	0	0.478188294243409	0	0	2933.0	1
616.41748046875	0.2	FACES	1	0.71899634761121	0	0	2941.0	1
617.95703125	0.2	SCRAMBLED	0	0.598725889703928	0	0	2947.0	1
619.35693359375	0.2	FACES	1	0.633397929306739	0	0	2955.0	1
620.8369140625	0.2	SCRAMBLED	0	0.529462706390404	0	0	2963.0	1
622.056640625	0.2	SCRAMBLED	0	0.732241842494659	0	0	2971.0	1
623.70654296875	0.2	SCRAMBLED	0	0.537962812038131	0	0	2977.0	1
625.15673828125	0.2	SCRAMBLED	0	0.628756678438549	0	0	2985.0	1
626.5966796875	0.2	SCRAMBLED	0	0.41866642518653	0	0	2993.0	1
627.9462890625	0.2	SCRAMBLED	0	0.424859790516166	0	0	3001.0	1
629.29638671875	0.2	SCRAMBLED	0	0.447318965257182	0	0	3009.0	1
630.6962890625	0.2	FACES	1	0.573014277520997	0	0	3017.0	1
n/a	0.2	SCRAMBLED	0	0.648897340698568	1	0	n/a	1
633.5859375	0.2	FACES	1	0.4017839355256	0	0	3025.0	1
634.74609375	0.2	SCRAMBLED	0	0.537695976334362	0	0	3033.0	1
636.005859375	0.2	FACES	1	0.631472425970969	0	0	3041.0	1
637.5556640625	0.2	FACES	1	0.488264058680215	0	0	3047.0	1
638.70556640625	0.2	FACES	1	0.539030456699948	0	0	3055.0	1
640.20556640625	0.2	FACES	1	0.483683177880266	0	0	3062.0	1
641.37548828125	0.2	FACES	1	0.555753569380613	0	0	3070.0	1
642.6552734375	0.2	SCRAMBLED	0	0.632498415285227	0	0	3078.0	1
644.10498046875	0.2	FACES	1	0.341470916720027	0	0	3086.0	1
645.4052734375	0.2	SCRAMBLED	0	0.538240212502387	0	0	3094.0	1
646.85498046875	0.2	SCRAMBLED	0	0.689996981496733	0	0	3102.0	1
648.36474609375	0.2	SCRAMBLED	0	0.788755471037803	0	0	3108.0	1
650.0947265625	0.2	FACES	1	0.823547043375584	0	0	3113.0	1
651.66455078125	0.2	FACES	1	0.947398653747769	0	0	3119.0	1
653.54443359375	0.2	SCRAMBLED	0	0.673213498747828	0	0	3124.0	1
655.064453125	0.2	SCRAMBLED	0	0.729995774095187	0	0	3130.0	1
656.734375	0.2	SCRAMBLED	0	0.523633674423763	0	0	3136.0	1
658.06396484375	0.2	SCRAMBLED	0	0.669535452322634	0	0	3144.0	1
659.68408203125	0.2	SCRAMBLED	0	0.713311600108682	0	0	3150.0	1
661.15380859375	0.2	SCRAMBLED	0	0.738161731413129	0	0	3158.0	1
662.77392578125	0.2	SCRAMBLED	0	0.513988046725899	0	0	3164.0	1
664.25341796875	0.2	FACES	1	0.662774004648782	0	0	3172.0	1
665.57373046875	0.2	FACES	1	0.53169458782304	0	0	3180.0	1
666.79345703125	0.2	SCRAMBLED	0	0.732500528238234	0	0	3188.0	1
668.29345703125	0.2	SCRAMBLED	0	0.567241389719129	0	0	3195.0	1
669.76318359375	0.2	FACES	1	0.503018503426574	0	0	3203.0	1
671.0830078125	0.2	SCRAMBLED	0	0.599948383591254	0	0	3211.0	1
672.3330078125	0.2	SCRAMBLED	0	0.727762383410663	0	0	3219.0	1
673.94287109375	0.2	SCRAMBLED	0	0.604550092064528	0	0	3225.0	1
675.23291015625	0.2	FACES	1	0.756463823237027	0	0	3233.0	1
676.7529296875	0.2	FACES	1	0.822206827854643	0	0	3239.0	1
678.53271484375	0.2	SCRAMBLED	0	0.71895107005912	0	0	3244.0	1
679.92236328125	0.2	FACES	1	0.60072413897251	0	0	3252.0	1
681.42236328125	0.2	SCRAMBLED	0	0.607579763953254	0	0	3259.0	1
682.72216796875	0.2	FACES	1	0.54643876965838	0	0	3267.0	1
684.0419921875	0.2	FACES	1	0.628353104531016	0	0	3275.0	1
685.39208984375	0.2	SCRAMBLED	0	n/a	0	1	3283.0	0
686.6220703125	0.2	SCRAMBLED	0	0.732948775996192	0	0	3291.0	1
n/a	0.2	FACES	1	0.546693531347046	1	0	n/a	1
n/a	0.2	FACES	1	0.493532554559351	1	0	n/a	1
690.6416015625	0.2	SCRAMBLED	0	0.508439433729109	0	0	3299.0	1
691.91162109375	0.2	FACES	1	0.540197108273787	0	0	3307.0	1
693.2314453125	0.2	SCRAMBLED	0	0.464030003923654	0	0	3315.0	1
n/a	0.2	FACES	1	0.431716019197665	1	0	n/a	1
n/a	0.2	SCRAMBLED	0	0.517728878022353	1	0	n/a	1
n/a	0.2	FACES	1	0.543510821335076	1	0	n/a	1
721.5693359375	0.2	SCRAMBLED	0	0.487477738537564	0	0	3323.0	1
722.71923828125	0.2	SCRAMBLED	0	0.547254972984774	0	0	3331.0	1
724.04931640625	0.2	FACES	1	0.469091128618857	0	0	3339.0	1
725.44921875	0.2	SCRAMBLED	0	0.533991668929957	0	0	3347.0	1
726.6689453125	0.2	FACES	1	0.516767786531091	0	0	3355.0	1
n/a	0.2	FACES	1	0.493616167103937	1	0	n/a	1
729.5888671875	0.2	FACES	1	0.333483654803786	0	0	3363.0	1
730.6083984375	0.2	FACES	1	0.517268858100579	0	0	3371.0	1
731.8583984375	0.2	SCRAMBLED	0	0.423065592079183	0	0	3379.0	1
733.12841796875	0.2	FACES	1	0.447910893778499	0	0	3387.0	1
734.328125	0.2	SCRAMBLED	0	0.496890035920842	0	0	3395.0	1
735.7080078125	0.2	SCRAMBLED	0	0.443595943131186	0	0	3403.0	1
736.84814453125	0.2	SCRAMBLED	0	0.482253614658475	0	0	3411.0	1
737.998046875	0.2	SCRAMBLED	0	0.46744091279561	0	0	3419.0	1
739.14794921875	0.2	FACES	1	0.467163814180822	0	0	3427.0	1
740.36767578125	0.2	SCRAMBLED	0	0.478021069153328	0	0	3435.0	1
741.59765625	0.2	FACES	1	0.422896555887746	0	0	3443.0	1
742.98779296875	0.2	FACES	1	0.383680159377036	0	0	3451.0	1
744.29736328125	0.2	FACES	1	0.398457846598831	0	0	3459.0	1
745.3876953125	0.2	FACES	1	0.446474991698778	0	0	3467.0	1
746.6875	0.2	SCRAMBLED	0	0.537228712004435	0	0	3475.0	1
747.9375	0.2	FACES	1	0.471067040961316	0	0	3483.0	1
749.0673828125	0.2	SCRAMBLED	0	0.547981828609409	0	0	3491.0	1
750.537109375	0.2	FACES	1	0.768731926710643	0	0	3499.0	1
752.23681640625	0.2	FACES	1	0.937465664523188	0	0	3505.0	1
754.0966796875	0.2	SCRAMBLED	0	0.828240514352728	0	0	3510.0	1
755.62646484375	0.2	FACES	1	0.952052280478711	0	0	3516.0	1
757.44677734375	0.2	SCRAMBLED	0	0.888756678438767	0	0	3521.0	1
759.1962890625	0.2	FACES	1	0.762673488484324	0	0	3526.0	1
760.826171875	0.2	FACES	1	0.768416794952827	0	0	3532.0	1
762.38623046875	0.2	FACES	1	0.686219928159517	0	0	3538.0	1
763.76611328125	0.2	SCRAMBLED	0	0.522991035045379	0	0	3546.0	1
765.18603515625	0.2	FACES	1	0.353800295813016	0	0	3554.0	1
766.255859375	0.2	SCRAMBLED	0	0.537752120499135	0	0	3562.0	1
767.56591796875	0.2	FACES	1	0.328513990762985	0	0	3570.0	1
768.78564453125	0.2	FACES	1	0.457383863080395	0	0	3578.0	1
769.92578125	0.2	FACES	1	0.487223882399121	0	0	3586.0	1
771.32568359375	0.2	FACES	1	0.361068550212622	0	0	3594.0	1
772.3955078125	0.2	SCRAMBLED	0	n/a	0	1	3602.0	0
773.45556640625	0.2	SCRAMBLED	0	0.56284675058123	0	0	3610.0	1
774.97509765625	0.2	FACES	1	0.483691025990083	0	0	3616.0	1
776.34521484375	0.2	FACES	1	0.528708986084894	0	0	3624.0	1
777.52490234375	0.2	FACES	1	0.510245404328089	0	0	3632.0	1
778.875	0.2	SCRAMBLED	0	0.553012768269582	0	0	3640.0	1
780.39501953125	0.2	SCRAMBLED	0	0.508951975610216	0	0	3646.0	1
781.56494140625	0.2	FACES	1	0.592758610281635	0	0	3654.0	1
782.86474609375	0.2	FACES	1	0.532726010444094	0	0	3662.0	1
784.234375	0.2	SCRAMBLED	0	0.51338766639492	0	0	3670.0	1
785.50439453125	0.2	FACES	1	0.612388239911525	0	0	3678.0	1
786.96435546875	0.2	SCRAMBLED	0	0.418055781943622	0	0	3686.0	1
788.25439453125	0.2	SCRAMBLED	0	0.419937516979189	0	0	3694.0	1
789.50390625	0.2	SCRAMBLED	0	0.432715143831956	0	0	3702.0	1
790.85400390625	0.2	FACES	1	0.633659029852424	0	0	3710.0	1
792.3837890625	0.2	SCRAMBLED	0	0.618392345075335	0	0	3716.0	1
793.95361328125	0.2	SCRAMBLED	0	0.503673216819152	0	0	3722.0	1
795.25390625	0.2	SCRAMBLED	0	0.468100153943851	0	0	3730.0	1
796.6435546875	0.2	FACES	1	0.522809622989371	0	0	3738.0	1
797.9736328125	0.2	FACES	1	0.481732319116418	0	0	3746.0	1
799.34326171875	0.2	SCRAMBLED	0	0.58253675027936	0	0	3754.0	1
800.86328125	0.2	SCRAMBLED	0	0.51327688731908	0	0	3760.0	1
802.23291015625	0.2	FACES	1	0.523189350720713	0	0	3768.0	1
803.533203125	0.2	FACES	1	0.507949228772304	0	0	3776.0	1
804.69287109375	0.2	SCRAMBLED	0	0.647731292824574	0	0	3784.0	1
806.03271484375	0.2	FACES	1	0.566528117359667	0	0	3792.0	1
807.36279296875	0.2	FACES	1	0.601416885508115	0	0	3800.0	1
808.75244140625	0.2	SCRAMBLED	0	n/a	0	1	3808.0	0
810.052734375	0.2	SCRAMBLED	0	0.4280998520926	0	0	3816.0	1
811.38232421875	0.2	FACES	1	0.682958133356806	0	0	3824.0	1
813.0224609375	0.2	SCRAMBLED	0	0.419883485767969	0	0	3830.0	1
814.3720703125	0.2	FACES	1	0.637529656796687	0	0	3838.0	1
815.7021484375	0.2	SCRAMBLED	0	0.602435932264598	0	0	3846.0	1
817.091796875	0.2	SCRAMBLED	0	0.474167949530965	0	0	3854.0	1
818.24169921875	0.2	FACES	1	0.716989344683498	0	0	3862.0	1
819.671875	0.2	SCRAMBLED	0	0.507829997887711	0	0	3870.0	1
821.1416015625	0.2	FACES	1	0.490729270427437	0	0	3878.0	1
822.3916015625	0.2	SCRAMBLED	0	0.527472607081108	0	0	3886.0	1
823.6513671875	0.2	FACES	1	0.557022850071007	0	0	3894.0	1
825.16162109375	0.2	FACES	1	0.49332880557813	0	0	3900.0	1
826.46142578125	0.2	SCRAMBLED	0	0.659017175284134	0	0	3908.0	1
827.80126953125	0.2	SCRAMBLED	0	0.617917836337256	0	0	3916.0	1
829.15087890625	0.2	FACES	1	0.536915391348884	0	0	3924.0	1
830.4208984375	0.2	FACES	1	0.496463823235899	0	0	3932.0	1
831.720703125	0.2	SCRAMBLED	0	0.709248694496637	0	0	3940.0	1
n/a	0.2	SCRAMBLED	0	0.563233722720724	1	0	n/a	1
n/a	0.2	SCRAMBLED	0	0.674953967823058	1	0	n/a	1
836.0205078125	0.2	FACES	1	0.57680189561961	0	0	3947.0	1
837.34033203125	0.2	FACES	1	0.496630444626135	0	0	3955.0	1
838.6904296875	0.2	FACES	1	0.553177276706265	0	0	3963.0	1
840.17041015625	0.2	FACES	1	0.508126113073558	0	0	3971.0	1
841.4599609375	0.2	SCRAMBLED	0	0.573765583024397	0	0	3979.0	1
842.76025390625	0.2	SCRAMBLED	0	0.726905430287843	0	0	3987.0	1
844.35986328125	0.2	SCRAMBLED	0	0.623687705636257	0	0	3993.0	1
845.77978515625	0.2	FACES	1	0.55747804038765	0	0	4001.0	1
847.099609375	0.2	SCRAMBLED	0	0.467395333394052	0	0	4009.0	1
848.35986328125	0.2	FACES	1	0.523202028434753	0	0	4017.0	1
849.74951171875	0.2	FACES	1	0.543994083733196	0	0	4025.0	1
851.029296875	0.2	SCRAMBLED	0	0.532883878173379	0	0	4033.0	1
852.3291015625	0.2	FACES	1	0.517571915844201	0	0	4041.0	1
853.51904296875	0.2	FACES	1	0.542490567176173	0	0	4049.0	1
854.8193359375	0.2	FACES	1	0.48237888255062	0	0	4057.0	1
856.2490234375	0.2	SCRAMBLED	0	0.428231760693052	0	0	4065.0	1
857.46875	0.2	FACES	1	0.488982160644809	0	0	4073.0	1
858.71875	0.2	SCRAMBLED	0	0.51786531437665	0	0	4081.0	1
860.0087890625	0.2	SCRAMBLED	0	0.477683902321587	0	0	4089.0	1
861.2587890625	0.2	SCRAMBLED	0	0.442471852455128	0	0	4097.0	1
862.388671875	0.2	SCRAMBLED	0	0.472412387937766	0	0	4105.0	1
863.79833984375	0.2	FACES	1	0.606943161580602	0	0	4113.0	1
865.078125	0.2	SCRAMBLED	0	0.518110416855052	0	0	4121.0	1
866.34814453125	0.2	FACES	1	0.491876301730372	0	0	4129.0	1
867.6083984375	0.2	FACES	1	0.668725587854169	0	0	4137.0	1
869.22802734375	0.2	SCRAMBLED	0	0.54345497902159	0	0	4143.0	1
870.4677734375	0.2	SCRAMBLED	0	0.640416553473187	0	0	4151.0	1
871.97802734375	0.2	FACES	1	0.538177729481504	0	0	4157.0	1
873.48779296875	0.2	SCRAMBLED	0	0.578973105134537	0	0	4163.0	1
874.9375	0.2	FACES	1	0.608734643364187	0	0	4171.0	1
876.4375	0.2	SCRAMBLED	0	0.563638202179391	0	0	4178.0	1
877.857421875	0.2	FACES	1	0.463453771619243	0	0	4186.0	1
879.05712890625	0.2	FACES	1	0.437415255515589	0	0	4194.0	1
880.18701171875	0.2	FACES	1	0.461196534757619	0	0	4202.0	1
881.42724609375	0.2	SCRAMBLED	0	0.58694255788032	0	0	4210.0	1
882.92724609375	0.2	SCRAMBLED	0	0.448697515771528	0	0	4217.0	1
884.20703125	0.2	SCRAMBLED	0	0.573489389960741	0	0	4225.0	1
885.70703125	0.2	FACES	1	0.578423435660625	0	0	4232.0	1
887.15673828125	0.2	FACES	1	0.6781967460538	0	0	4240.0	1
888.716796875	0.2	SCRAMBLED	0	0.629971626068254	0	0	4246.0	1
889.99658203125	0.2	FACES	1	0.47191342932183	0	0	4254.0	1
891.2666015625	0.2	FACES	1	0.903698572247777	0	0	4262.0	1
893.13623046875	0.2	FACES	1	0.542457665489565	0	0	4267.0	1
894.51611328125	0.2	SCRAMBLED	0	0.494092486945192	0	0	4275.0	1
895.7158203125	0.2	SCRAMBLED	0	0.468107398352004	0	0	4283.0	1
896.916015625	0.2	SCRAMBLED	0	0.512897159587737	0	0	4291.0	1
898.166015625	0.2	SCRAMBLED	0	0.512946964895491	0	0	4299.0	1
899.65576171875	0.2	SCRAMBLED	0	0.428498596395912	0	0	4307.0	1
900.935546875	0.2	SCRAMBLED	0	0.47741042591133	0	0	4315.0	1
902.07568359375	0.2	SCRAMBLED	0	0.387257991487786	0	0	4323.0	1
903.1552734375	0.2	SCRAMBLED	0	0.451920371879169	0	0	4331.0	1
904.54541015625	0.2	SCRAMBLED	0	0.614681095113156	0	0	4339.0	1
905.89501953125	0.2	SCRAMBLED	0	0.602593196293128	0	0	4347.0	1
907.22509765625	0.2	SCRAMBLED	0	0.562609194361357	0	0	4355.0	1
908.6748046875	0.2	FACES	1	0.648408644993651	0	0	4363.0	1
910.0947265625	0.2	SCRAMBLED	0	0.527234145311013	0	0	4371.0	1
911.294921875	0.2	FACES	1	0.546900298832043	0	0	4379.0	1
912.544921875	0.2	FACES	1	0.44254339098643	0	0	4387.0	1
913.73486328125	0.2	FACES	1	0.456836306559126	0	0	4395.0	1
914.96435546875	0.2	SCRAMBLED	0	0.593374988680807	0	0	4403.0	1
916.45458984375	0.2	FACES	1	0.577439705393772	0	0	4411.0	1
917.80419921875	0.2	SCRAMBLED	0	0.544108485013567	0	0	4419.0	1
