onset	duration	trial_type	trial_type_id	response_time	bad_epoch	outliers	direction	name_direction	event_num	response_accuracy
33.27685546875	0.2	COHERENT	1	0.940507244580658	0	0	0	RIGHT	1.0	1
34.9970703125	0.2	COHERENT	1	n/a	0	1	0	RIGHT	4.0	0
36.86669921875	0.2	COHERENT	1	0.633887903197319	0	0	180	LEFT	5.0	1
38.31640625	0.2	RANDOM	0	0.585029752866831	0	0	0	NONE	9.0	1
39.646484375	0.2	COHERENT	1	0.490849868911027	0	0	0	RIGHT	13.0	1
40.7666015625	0.2	COHERENT	1	0.512627688007342	0	0	180	LEFT	17.0	1
42.1865234375	0.2	RANDOM	0	0.549351063309587	0	0	0	NONE	21.0	1
43.38623046875	0.2	RANDOM	0	0.588263720819668	0	0	0	NONE	25.0	1
44.60595703125	0.2	RANDOM	0	0.482943339455232	0	0	0	NONE	29.0	1
45.73583984375	0.2	RANDOM	0	0.538972422829829	0	0	0	NONE	33.0	1
46.90576171875	0.2	COHERENT	1	0.632863139224355	0	0	180	LEFT	37.0	1
48.43603515625	0.2	RANDOM	0	0.709654031230457	0	0	0	NONE	40.0	1
49.94580078125	0.2	RANDOM	0	1.07946946505399	0	0	0	NONE	43.0	1
51.67578125	0.2	COHERENT	1	0.568199174274923	0	0	0	RIGHT	45.0	1
52.845703125	0.2	COHERENT	1	0.598102662333986	0	0	0	RIGHT	49.0	1
54.265625	0.2	RANDOM	0	0.754893059314782	0	0	0	NONE	53.0	1
55.72509765625	0.2	RANDOM	0	1.14765596183133	0	0	0	NONE	57.0	1
57.7353515625	0.2	RANDOM	0	0.599406934830768	0	0	0	NONE	59.0	1
59.14501953125	0.2	RANDOM	0	0.613832412003831	0	0	0	NONE	63.0	1
60.46484375	0.2	COHERENT	1	0.529119596445526	0	0	0	RIGHT	67.0	1
61.60498046875	0.2	COHERENT	1	0.727928938431432	0	0	0	RIGHT	71.0	1
63.15478515625	0.2	RANDOM	0	0.674852201569593	0	0	0	NONE	74.0	1
64.564453125	0.2	COHERENT	1	0.508346619546501	0	0	0	RIGHT	78.0	1
65.6845703125	0.2	COHERENT	1	0.618443397110241	0	0	180	LEFT	82.0	1
67.1044921875	0.2	COHERENT	1	0.779061793113215	0	0	0	RIGHT	86.0	1
68.75439453125	0.2	RANDOM	0	n/a	0	1	0	NONE	89.0	0
70.14404296875	0.2	RANDOM	0	0.727887887504039	0	0	0	NONE	93.0	1
71.6240234375	0.2	COHERENT	1	0.659659132412344	0	0	0	RIGHT	97.0	1
73.11376953125	0.2	COHERENT	1	0.614817936118925	0	0	0	RIGHT	101.0	1
74.52392578125	0.2	RANDOM	0	0.479386397291819	0	0	0	NONE	105.0	1
75.62353515625	0.2	RANDOM	0	0.643156659396482	0	0	0	NONE	109.0	1
76.98388671875	0.2	COHERENT	1	0.757945316541736	0	0	180	LEFT	113.0	1
78.61328125	0.2	RANDOM	0	0.673862451621972	0	0	0	NONE	116.0	1
80.08349609375	0.2	COHERENT	1	0.589551995526563	0	0	180	LEFT	120.0	1
81.51318359375	0.2	RANDOM	0	n/a	0	1	0	NONE	124.0	0
83.06298828125	0.2	COHERENT	1	n/a	0	1	0	RIGHT	127.0	0
84.73291015625	0.2	COHERENT	1	0.782899149340665	0	0	180	LEFT	129.0	1
86.302734375	0.2	COHERENT	1	0.623870571253065	0	0	0	RIGHT	132.0	1
87.6728515625	0.2	RANDOM	0	0.619662851146131	0	0	0	NONE	136.0	1
88.99267578125	0.2	RANDOM	0	0.588434565121133	0	0	0	NONE	140.0	1
90.302734375	0.2	COHERENT	1	0.954156979958498	0	0	0	RIGHT	144.0	1
92.00244140625	0.2	RANDOM	0	0.678729099494376	0	0	0	NONE	147.0	1
93.29248046875	0.2	RANDOM	0	0.988876104074734	0	0	0	NONE	151.0	1
95.01220703125	0.2	RANDOM	0	0.694466395289055	0	0	0	NONE	154.0	1
96.43212890625	0.2	RANDOM	0	0.774419416124147	0	0	0	NONE	158.0	1
97.841796875	0.2	COHERENT	1	0.678359037454356	0	0	180	LEFT	162.0	1
99.2119140625	0.2	RANDOM	0	0.753161676060699	0	0	0	NONE	166.0	1
100.7119140625	0.2	COHERENT	1	0.929935121421295	0	0	0	RIGHT	170.0	1
102.431640625	0.2	RANDOM	0	0.929765484499512	0	0	0	NONE	173.0	1
104.20166015625	0.2	RANDOM	0	0.864429008761363	0	0	0	NONE	176.0	1
105.78125	0.2	RANDOM	0	0.724352376335446	0	0	0	NONE	179.0	1
107.33154296875	0.2	COHERENT	1	0.534103360201698	0	0	180	LEFT	182.0	1
108.5712890625	0.2	RANDOM	0	0.697885696103185	0	0	0	NONE	186.0	1
110.02099609375	0.2	RANDOM	0	0.880763957768067	0	0	0	NONE	190.0	1
111.72119140625	0.2	COHERENT	1	0.554615844812361	0	0	180	LEFT	193.0	1
112.970703125	0.2	RANDOM	0	0.848366323993105	0	0	0	NONE	197.0	1
114.61083984375	0.2	COHERENT	1	0.883879904304194	0	0	180	LEFT	200.0	1
116.3408203125	0.2	COHERENT	1	0.619879877740459	0	0	0	RIGHT	203.0	1
117.560546875	0.2	COHERENT	1	1.19847157736513	0	0	0	RIGHT	207.0	1
119.51025390625	0.2	RANDOM	0	0.889181812748575	0	0	0	NONE	209.0	1
121.23046875	0.2	RANDOM	0	1.01408831624212	0	0	0	NONE	212.0	1
122.85009765625	0.2	RANDOM	0	1.0980742888969	0	0	0	NONE	214.0	1
124.56982421875	0.2	COHERENT	1	0.642928464530996	0	0	180	LEFT	216.0	1
125.8798828125	0.2	RANDOM	0	0.862457356837695	0	0	0	NONE	220.0	1
127.49951171875	0.2	COHERENT	1	0.669584401610336	0	0	0	RIGHT	223.0	1
129.01953125	0.2	COHERENT	1	1.1291812332056	0	0	0	RIGHT	226.0	1
130.86962890625	0.2	RANDOM	0	0.654120879287802	0	0	0	NONE	228.0	1
132.4091796875	0.2	COHERENT	1	1.02483007632327	0	0	0	RIGHT	231.0	1
134.3193359375	0.2	RANDOM	0	0.729655492163147	0	0	0	NONE	233.0	1
135.6591796875	0.2	COHERENT	1	0.978486597174197	0	0	180	LEFT	237.0	1
137.458984375	0.2	RANDOM	0	0.684261617563607	0	0	0	NONE	240.0	1
138.93896484375	0.2	COHERENT	1	0.689060048451211	0	0	180	LEFT	244.0	1
140.44873046875	0.2	RANDOM	0	0.839870291143598	0	0	0	NONE	247.0	1
141.99853515625	0.2	COHERENT	1	0.704628612860688	0	0	180	LEFT	250.0	1
143.32861328125	0.2	COHERENT	1	0.873426708094485	0	0	0	RIGHT	254.0	1
144.82861328125	0.2	COHERENT	1	0.783314186297503	0	0	0	RIGHT	258.0	1
146.41845703125	0.2	COHERENT	1	0.709076601637207	0	0	180	LEFT	261.0	1
148.0380859375	0.2	RANDOM	0	0.689923929006909	0	0	0	NONE	264.0	1
149.337890625	0.2	RANDOM	0	0.753634667267761	0	0	0	NONE	268.0	1
150.7978515625	0.2	COHERENT	1	1.02853763917301	0	0	0	RIGHT	272.0	1
152.66796875	0.2	RANDOM	0	0.819308002093749	0	0	0	NONE	274.0	1
154.2177734375	0.2	RANDOM	0	0.87411038715436	0	0	0	NONE	277.0	1
155.70751953125	0.2	RANDOM	0	0.997854485325661	0	0	0	NONE	281.0	1
157.42724609375	0.2	COHERENT	1	0.624640879843355	0	0	180	LEFT	284.0	1
158.67724609375	0.2	COHERENT	1	0.813575360749383	0	0	180	LEFT	288.0	1
160.34716796875	0.2	RANDOM	0	0.779303269162483	0	0	0	NONE	291.0	1
161.95703125	0.2	RANDOM	0	1.17903939621101	0	0	0	NONE	294.0	1
n/a	0.2	RANDOM	0	1.02281948639575	1	0	0	NONE	n/a	1
165.47705078125	0.2	COHERENT	1	0.562681748455361	0	0	180	LEFT	296.0	1
166.86669921875	0.2	RANDOM	0	0.93425814634611	0	0	0	NONE	300.0	1
168.5966796875	0.2	COHERENT	1	0.529296175805939	0	0	0	RIGHT	303.0	1
169.896484375	0.2	RANDOM	0	0.654111220243067	0	0	0	NONE	307.0	1
171.33642578125	0.2	COHERENT	1	0.584729417034396	0	0	180	LEFT	311.0	1
172.81640625	0.2	COHERENT	1	0.679681420653651	0	0	180	LEFT	315.0	1
174.26611328125	0.2	COHERENT	1	0.684533881805692	0	0	180	LEFT	319.0	1
175.80615234375	0.2	COHERENT	1	0.569343770734122	0	0	0	RIGHT	322.0	1
177.1259765625	0.2	RANDOM	0	0.609119403263321	0	0	0	NONE	326.0	1
178.505859375	0.2	COHERENT	1	0.904651070130058	0	0	180	LEFT	330.0	1
180.10546875	0.2	COHERENT	1	0.658934704271815	0	0	0	RIGHT	333.0	1
181.37548828125	0.2	COHERENT	1	0.858474511296663	0	0	0	RIGHT	337.0	1
183.07568359375	0.2	RANDOM	0	0.699347229878185	0	0	0	NONE	340.0	1
184.62548828125	0.2	COHERENT	1	0.609372953113052	0	0	180	LEFT	343.0	1
185.9951171875	0.2	RANDOM	0	0.770126575705945	0	0	0	NONE	347.0	1
187.5849609375	0.2	RANDOM	0	0.564849901507841	0	0	0	NONE	350.0	1
188.7451171875	0.2	COHERENT	1	n/a	0	1	180	LEFT	354.0	0
190.384765625	0.2	RANDOM	0	0.704413397332246	0	0	0	NONE	357.0	1
191.70458984375	0.2	COHERENT	1	0.518723750799836	0	0	0	RIGHT	361.0	1
193.0146484375	0.2	RANDOM	0	n/a	0	1	0	NONE	365.0	0
194.66455078125	0.2	RANDOM	0	0.838021490162646	0	0	0	NONE	367.0	1
196.38427734375	0.2	RANDOM	0	0.874731886127847	0	0	0	NONE	370.0	1
198.00439453125	0.2	COHERENT	1	0.569204620158416	0	0	180	LEFT	373.0	1
199.29443359375	0.2	RANDOM	0	0.78827651904794	0	0	0	NONE	377.0	1
200.77392578125	0.2	RANDOM	0	0.718100863337895	0	0	0	NONE	381.0	1
202.14404296875	0.2	RANDOM	0	0.847886692194152	0	0	0	NONE	385.0	1
203.59375	0.2	COHERENT	1	0.638770548855973	0	0	0	RIGHT	389.0	1
205.12353515625	0.2	RANDOM	0	0.599557253670355	0	0	0	NONE	392.0	1
206.5634765625	0.2	RANDOM	0	0.944488580898906	0	0	0	NONE	396.0	1
208.1435546875	0.2	RANDOM	0	0.968148403935629	0	0	0	NONE	399.0	1
209.943359375	0.2	RANDOM	0	0.834978590130049	0	0	0	NONE	402.0	1
211.38330078125	0.2	COHERENT	1	0.628311617590953	0	0	180	LEFT	406.0	1
212.7333984375	0.2	RANDOM	0	0.873587289668649	0	0	0	NONE	410.0	1
214.283203125	0.2	COHERENT	1	0.833369152278465	0	0	0	RIGHT	413.0	1
215.72314453125	0.2	COHERENT	1	0.708265845809365	0	0	180	LEFT	417.0	1
217.15283203125	0.2	RANDOM	0	0.74468647051981	0	0	0	NONE	421.0	1
218.6025390625	0.2	COHERENT	1	0.538988722466456	0	0	180	LEFT	425.0	1
219.7724609375	0.2	RANDOM	0	0.792752881265187	0	0	0	NONE	429.0	1
221.3525390625	0.2	COHERENT	1	n/a	0	1	180	LEFT	432.0	0
223.16259765625	0.2	COHERENT	1	n/a	0	1	180	LEFT	435.0	0
225.21240234375	0.2	COHERENT	1	0.709693572935066	0	0	0	RIGHT	436.0	1
226.73193359375	0.2	COHERENT	1	n/a	0	1	0	RIGHT	439.0	0
228.68212890625	0.2	RANDOM	0	0.768541587305663	0	0	0	NONE	441.0	1
230.0419921875	0.2	COHERENT	1	n/a	0	1	0	RIGHT	445.0	0
231.6318359375	0.2	COHERENT	1	0.818199023349734	0	0	180	LEFT	448.0	1
233.1015625	0.2	COHERENT	1	0.747771628859482	0	0	180	LEFT	452.0	1
234.7216796875	0.2	COHERENT	1	0.644824957031233	0	0	180	LEFT	455.0	1
236.25146484375	0.2	RANDOM	0	0.78455326025869	0	0	0	NONE	458.0	1
237.7314453125	0.2	RANDOM	0	0.898352771149803	0	0	0	NONE	462.0	1
239.2412109375	0.2	COHERENT	1	0.688319924371172	0	0	0	RIGHT	465.0	1
240.69091796875	0.2	COHERENT	1	0.635055138034659	0	0	180	LEFT	469.0	1
242.05078125	0.2	RANDOM	0	1.03481843114059	0	0	0	NONE	473.0	1
243.69091796875	0.2	RANDOM	0	0.798577585348539	0	0	0	NONE	475.0	1
245.29052734375	0.2	RANDOM	0	0.6293496627477	0	0	0	NONE	478.0	1
246.73046875	0.2	COHERENT	1	0.729028861820552	0	0	180	LEFT	482.0	1
248.140625	0.2	RANDOM	0	0.678065040363435	0	0	0	NONE	486.0	1
249.43017578125	0.2	COHERENT	1	0.827589423104655	0	0	0	RIGHT	490.0	1
251.080078125	0.2	COHERENT	1	0.634743332091602	0	0	180	LEFT	493.0	1
252.39990234375	0.2	COHERENT	1	0.703540461425291	0	0	0	RIGHT	497.0	1
253.830078125	0.2	COHERENT	1	0.6943453554195	0	0	0	RIGHT	501.0	1
255.419921875	0.2	COHERENT	1	0.550220377077494	0	0	180	LEFT	504.0	1
256.75	0.2	RANDOM	0	0.635023142458522	0	0	0	NONE	508.0	1
297.1767578125	0.2	RANDOM	0	0.719540060574218	0	0	0	NONE	510.0	1
298.7666015625	0.2	COHERENT	1	0.394596309401095	0	0	180	LEFT	513.0	1
300.0166015625	0.2	RANDOM	0	0.529491167711967	0	0	0	NONE	517.0	1
301.1962890625	0.2	COHERENT	1	0.44827703822375	0	0	0	RIGHT	521.0	1
302.31640625	0.2	RANDOM	0	0.633084089808108	0	0	0	NONE	525.0	1
303.8359375	0.2	COHERENT	1	0.474020497695165	0	0	0	RIGHT	528.0	1
305.2060546875	0.2	COHERENT	1	0.379769981991558	0	0	0	RIGHT	532.0	1
306.48583984375	0.2	RANDOM	0	0.519582801836805	0	0	0	NONE	536.0	1
307.82568359375	0.2	RANDOM	0	0.564337368599809	0	0	0	NONE	540.0	1
309.185546875	0.2	RANDOM	0	0.470292409383546	0	0	0	NONE	544.0	1
310.49560546875	0.2	COHERENT	1	0.734088388682721	0	0	180	LEFT	548.0	1
311.87548828125	0.2	RANDOM	0	0.697614639244421	0	0	0	NONE	552.0	1
313.17529296875	0.2	COHERENT	1	0.708739138859528	0	0	0	RIGHT	556.0	1
314.67529296875	0.2	COHERENT	1	0.669569913050509	0	0	180	LEFT	560.0	1
316.025390625	0.2	COHERENT	1	0.503366477933014	0	0	0	RIGHT	564.0	1
317.38525390625	0.2	RANDOM	0	0.600229160769231	0	0	0	NONE	568.0	1
318.81494140625	0.2	COHERENT	1	0.855115277645382	0	0	0	RIGHT	572.0	1
320.48486328125	0.2	RANDOM	0	0.724502695175033	0	0	0	NONE	575.0	1
321.81494140625	0.2	RANDOM	0	0.88860559053137	0	0	0	NONE	579.0	1
323.45458984375	0.2	RANDOM	0	0.869368099443818	0	0	0	NONE	582.0	1
325.1142578125	0.2	RANDOM	0	0.859215842760022	0	0	0	NONE	585.0	1
326.58447265625	0.2	RANDOM	0	0.8780183751187	0	0	0	NONE	589.0	1
328.08447265625	0.2	RANDOM	0	0.682670290414535	0	0	0	NONE	593.0	1
329.50390625	0.2	RANDOM	0	0.524688812838576	0	0	0	NONE	597.0	1
330.673828125	0.2	COHERENT	1	0.568493171358568	0	0	0	RIGHT	601.0	1
331.994140625	0.2	RANDOM	0	n/a	0	1	0	NONE	605.0	0
334.07373046875	0.2	COHERENT	1	0.53406442218693	0	0	0	RIGHT	606.0	1
335.3935546875	0.2	RANDOM	0	0.819885733537376	0	0	0	NONE	610.0	1
337.09375	0.2	RANDOM	0	0.714718689461733	0	0	0	NONE	613.0	1
338.61328125	0.2	COHERENT	1	0.649388250618358	0	0	180	LEFT	616.0	1
340.0634765625	0.2	RANDOM	0	0.719309149102628	0	0	0	NONE	620.0	1
341.43310546875	0.2	COHERENT	1	0.628484574812319	0	0	180	LEFT	624.0	1
342.81298828125	0.2	RANDOM	0	0.859691550573189	0	0	0	NONE	628.0	1
344.26318359375	0.2	RANDOM	0	0.878776609904889	0	0	0	NONE	632.0	1
346.0029296875	0.2	COHERENT	1	0.849403463613271	0	0	180	LEFT	635.0	1
347.65283203125	0.2	RANDOM	0	0.789367085242702	0	0	0	NONE	638.0	1
349.29248046875	0.2	COHERENT	1	0.609291153105005	0	0	180	LEFT	641.0	1
350.5224609375	0.2	COHERENT	1	0.832957133778109	0	0	0	RIGHT	645.0	1
352.09228515625	0.2	COHERENT	1	0.633768674397288	0	0	180	LEFT	648.0	1
353.572265625	0.2	RANDOM	0	0.689524286153755	0	0	0	NONE	652.0	1
354.9921875	0.2	RANDOM	0	0.714472685740475	0	0	0	NONE	656.0	1
356.322265625	0.2	COHERENT	1	0.693229434240493	0	0	0	RIGHT	660.0	1
357.89208984375	0.2	COHERENT	1	0.605050833728455	0	0	0	RIGHT	663.0	1
359.3916015625	0.2	COHERENT	1	0.560829929025203	0	0	180	LEFT	667.0	1
360.61181640625	0.2	COHERENT	1	0.587748773152271	0	0	180	LEFT	671.0	1
361.8818359375	0.2	COHERENT	1	0.763523111370887	0	0	0	RIGHT	675.0	1
363.3115234375	0.2	COHERENT	1	0.523424685736245	0	0	180	LEFT	679.0	1
364.72119140625	0.2	RANDOM	0	0.594233008687297	0	0	0	NONE	683.0	1
366.18115234375	0.2	RANDOM	0	0.605046004206088	0	0	0	NONE	687.0	1
367.42138671875	0.2	COHERENT	1	0.652896293886442	0	0	180	LEFT	691.0	1
368.87109375	0.2	COHERENT	1	0.719604655416333	0	0	180	LEFT	695.0	1
370.32080078125	0.2	RANDOM	0	0.894442066575721	0	0	0	NONE	699.0	1
371.80078125	0.2	COHERENT	1	0.558003451900731	0	0	0	RIGHT	703.0	1
373.1708984375	0.2	RANDOM	0	0.619025958072598	0	0	0	NONE	707.0	1
374.44091796875	0.2	RANDOM	0	0.587839628511574	0	0	0	NONE	711.0	1
375.62060546875	0.2	RANDOM	0	0.708474420742277	0	0	0	NONE	715.0	1
377.16064453125	0.2	RANDOM	0	0.534546166898508	0	0	0	NONE	718.0	1
378.39013671875	0.2	COHERENT	1	0.548265024790453	0	0	180	LEFT	722.0	1
379.73046875	0.2	COHERENT	1	0.683980297970265	0	0	180	LEFT	726.0	1
381.22998046875	0.2	RANDOM	0	0.474527597390988	0	0	0	NONE	730.0	1
382.31005859375	0.2	COHERENT	1	0.717952355567832	0	0	0	RIGHT	734.0	1
383.64990234375	0.2	COHERENT	1	0.902738881690311	0	0	0	RIGHT	738.0	1
385.4296875	0.2	RANDOM	0	0.924517908166308	0	0	0	NONE	741.0	1
387.1796875	0.2	COHERENT	1	0.87398693252544	0	0	0	RIGHT	744.0	1
388.849609375	0.2	COHERENT	1	n/a	0	1	0	RIGHT	747.0	0
390.6494140625	0.2	RANDOM	0	0.818792752579611	0	0	0	NONE	748.0	1
392.119140625	0.2	RANDOM	0	0.788555423885555	0	0	0	NONE	752.0	1
393.7392578125	0.2	COHERENT	1	n/a	0	1	0	RIGHT	755.0	0
395.38916015625	0.2	RANDOM	0	0.794216527949175	0	0	0	NONE	758.0	1
396.85888671875	0.2	RANDOM	0	0.783007813563017	0	0	0	NONE	762.0	1
398.5390625	0.2	COHERENT	1	0.509917421230057	0	0	180	LEFT	765.0	1
399.728515625	0.2	COHERENT	1	0.60276677217189	0	0	0	RIGHT	769.0	1
401.20849609375	0.2	RANDOM	0	0.72433215271667	0	0	0	NONE	773.0	1
402.74853515625	0.2	RANDOM	0	0.788980119879852	0	0	0	NONE	776.0	1
404.1982421875	0.2	COHERENT	1	0.57302205461383	0	0	0	RIGHT	780.0	1
405.37841796875	0.2	COHERENT	1	0.567982449520059	0	0	0	RIGHT	784.0	1
406.568359375	0.2	COHERENT	1	0.603752598130086	0	0	0	RIGHT	788.0	1
408.0283203125	0.2	RANDOM	0	0.6595779360905	0	0	0	NONE	792.0	1
409.48779296875	0.2	COHERENT	1	1.06906697881641	0	0	0	RIGHT	796.0	1
411.3876953125	0.2	RANDOM	0	0.60407044097883	0	0	0	NONE	798.0	1
412.587890625	0.2	COHERENT	1	0.648013346381049	0	0	0	RIGHT	802.0	1
413.9375	0.2	COHERENT	1	0.687848140543792	0	0	180	LEFT	806.0	1
415.36767578125	0.2	COHERENT	1	0.589578256051027	0	0	180	LEFT	810.0	1
416.58740234375	0.2	COHERENT	1	0.513520545686333	0	0	180	LEFT	814.0	1
417.787109375	0.2	COHERENT	1	0.523435552157025	0	0	0	RIGHT	818.0	1
418.95703125	0.2	RANDOM	0	0.558209612074279	0	0	0	NONE	822.0	1
420.39697265625	0.2	RANDOM	0	0.785001500167709	0	0	0	NONE	826.0	1
421.89697265625	0.2	RANDOM	0	0.51485560637957	0	0	0	NONE	830.0	1
423.2568359375	0.2	RANDOM	0	0.699533166432957	0	0	0	NONE	834.0	1
424.61669921875	0.2	COHERENT	1	n/a	0	1	0	RIGHT	838.0	0
425.91650390625	0.2	COHERENT	1	n/a	0	1	0	RIGHT	842.0	0
427.36669921875	0.2	COHERENT	1	n/a	0	1	0	RIGHT	846.0	0
428.986328125	0.2	COHERENT	1	0.694958704578312	0	0	180	LEFT	849.0	1
430.4462890625	0.2	RANDOM	0	0.684775056004582	0	0	0	NONE	853.0	1
431.8662109375	0.2	RANDOM	0	0.944534763191768	0	0	0	NONE	857.0	1
433.5859375	0.2	COHERENT	1	0.514325566458865	0	0	0	RIGHT	860.0	1
434.9560546875	0.2	RANDOM	0	0.77918373851935	0	0	0	NONE	864.0	1
436.52587890625	0.2	RANDOM	0	0.770003422923764	0	0	0	NONE	867.0	1
438.0859375	0.2	RANDOM	0	0.699798186393309	0	0	0	NONE	870.0	1
439.42578125	0.2	RANDOM	0	0.623511979327304	0	0	0	NONE	874.0	1
440.775390625	0.2	RANDOM	0	0.694478469089518	0	0	0	NONE	878.0	1
442.3056640625	0.2	COHERENT	1	0.569228164076776	0	0	180	LEFT	881.0	1
443.55517578125	0.2	RANDOM	0	1.18269987123131	0	0	0	NONE	885.0	1
445.54541015625	0.2	RANDOM	0	0.809739211908891	0	0	0	NONE	887.0	1
447.125	0.2	RANDOM	0	0.654528068269428	0	0	0	NONE	890.0	1
448.68505859375	0.2	COHERENT	1	0.539417946136382	0	0	180	LEFT	893.0	1
449.8447265625	0.2	RANDOM	0	0.713011755658954	0	0	0	NONE	897.0	1
451.3349609375	0.2	COHERENT	1	0.723887836793438	0	0	0	RIGHT	901.0	1
452.71484375	0.2	COHERENT	1	0.577964163745492	0	0	180	LEFT	905.0	1
453.95458984375	0.2	COHERENT	1	0.587488582710648	0	0	0	RIGHT	909.0	1
455.25439453125	0.2	COHERENT	1	0.604504494171124	0	0	180	LEFT	913.0	1
456.6845703125	0.2	RANDOM	0	0.514286326600995	0	0	0	NONE	917.0	1
458.05419921875	0.2	RANDOM	0	0.659221457077365	0	0	0	NONE	921.0	1
459.59423828125	0.2	RANDOM	0	0.744971714098938	0	0	0	NONE	924.0	1
461.09375	0.2	RANDOM	0	0.579797872473137	0	0	0	NONE	928.0	1
462.2939453125	0.2	COHERENT	1	0.673407571121061	0	0	180	LEFT	932.0	1
463.84375	0.2	RANDOM	0	0.643484764972527	0	0	0	NONE	935.0	1
465.2236328125	0.2	RANDOM	0	0.839213778141129	0	0	0	NONE	939.0	1
466.9736328125	0.2	COHERENT	1	0.549091778404545	0	0	180	LEFT	942.0	1
468.13330078125	0.2	COHERENT	1	0.627955138581456	0	0	180	LEFT	946.0	1
469.63330078125	0.2	COHERENT	1	0.554712737077352	0	0	0	RIGHT	950.0	1
470.783203125	0.2	RANDOM	0	0.648514409174823	0	0	0	NONE	954.0	1
472.18310546875	0.2	COHERENT	1	n/a	0	1	180	LEFT	958.0	0
473.5830078125	0.2	RANDOM	0	1.04280102554912	0	0	0	NONE	962.0	1
475.53271484375	0.2	COHERENT	1	0.579917101273168	0	0	180	LEFT	964.0	1
476.98291015625	0.2	COHERENT	1	0.504870873701293	0	0	180	LEFT	968.0	1
478.1826171875	0.2	RANDOM	0	0.627538894244935	0	0	0	NONE	972.0	1
479.6025390625	0.2	RANDOM	0	1.11439686226004	0	0	0	NONE	976.0	1
481.4921875	0.2	RANDOM	0	0.804198845864448	0	0	0	NONE	978.0	1
483.14208984375	0.2	COHERENT	1	0.649964170992462	0	0	0	RIGHT	981.0	1
484.51220703125	0.2	COHERENT	1	0.634843846495642	0	0	180	LEFT	985.0	1
485.921875	0.2	RANDOM	0	0.614421613554441	0	0	0	NONE	989.0	1
487.19189453125	0.2	COHERENT	1	0.618441284193977	0	0	0	RIGHT	993.0	1
488.6318359375	0.2	RANDOM	0	0.59421852012747	0	0	0	NONE	997.0	1
490.01171875	0.2	RANDOM	0	0.703745716065896	0	0	0	NONE	1001.0	1
491.61181640625	0.2	COHERENT	1	0.609944345807889	0	0	0	RIGHT	1004.0	1
493.111328125	0.2	COHERENT	1	0.469705622588663	0	0	180	LEFT	1008.0	1
494.46142578125	0.2	COHERENT	1	0.464585123023426	0	0	0	RIGHT	1012.0	1
495.6015625	0.2	COHERENT	1	0.473817355970823	0	0	180	LEFT	1016.0	1
496.85107421875	0.2	RANDOM	0	0.623163951971947	0	0	0	NONE	1020.0	1
498.0810546875	0.2	RANDOM	0	0.588043373925757	0	0	0	NONE	1024.0	1
499.4208984375	0.2	RANDOM	0	0.559928015991318	0	0	0	NONE	1028.0	1
500.80078125	0.2	RANDOM	0	0.664491068102507	0	0	0	NONE	1032.0	1
502.19091796875	0.2	COHERENT	1	0.484573604619072	0	0	180	LEFT	1036.0	1
503.37060546875	0.2	COHERENT	1	0.348415222888434	0	0	0	RIGHT	1040.0	1
504.5107421875	0.2	RANDOM	0	0.564076574468345	0	0	0	NONE	1044.0	1
505.79052734375	0.2	COHERENT	1	0.78517113709313	0	0	180	LEFT	1048.0	1
507.23046875	0.2	COHERENT	1	0.487945515760657	0	0	180	LEFT	1052.0	1
508.39013671875	0.2	COHERENT	1	0.403889816894662	0	0	180	LEFT	1056.0	1
509.43017578125	0.2	COHERENT	1	0.503508043264446	0	0	0	RIGHT	1060.0	1
560.59619140625	0.2	RANDOM	0	0.619725634915085	0	0	0	NONE	1062.0	1
561.99609375	0.2	COHERENT	1	0.474526088164566	0	0	180	LEFT	1066.0	1
563.1162109375	0.2	RANDOM	0	0.45873506395219	0	0	0	NONE	1070.0	1
564.18603515625	0.2	RANDOM	0	0.468690215813695	0	0	0	NONE	1074.0	1
565.40576171875	0.2	COHERENT	1	0.599426554756064	0	0	0	RIGHT	1078.0	1
566.7060546875	0.2	RANDOM	0	0.568200381654606	0	0	0	NONE	1082.0	1
568.005859375	0.2	COHERENT	1	0.514044246861886	0	0	0	RIGHT	1086.0	1
569.255859375	0.2	RANDOM	0	0.709926597319281	0	0	0	NONE	1090.0	1
570.65576171875	0.2	RANDOM	0	0.804485598669999	0	0	0	NONE	1094.0	1
572.3251953125	0.2	RANDOM	0	0.763572312116594	0	0	0	NONE	1097.0	1
573.8955078125	0.2	COHERENT	1	0.679370822086639	0	0	180	LEFT	1100.0	1
575.42529296875	0.2	RANDOM	0	0.569093239333597	0	0	0	NONE	1103.0	1
576.81494140625	0.2	RANDOM	0	0.535018554415728	0	0	0	NONE	1107.0	1
578.03515625	0.2	RANDOM	0	0.864114486208564	0	0	0	NONE	1111.0	1
579.544921875	0.2	COHERENT	1	0.717666508298862	0	0	0	RIGHT	1114.0	1
581.134765625	0.2	RANDOM	0	0.794441100671975	0	0	0	NONE	1117.0	1
582.564453125	0.2	COHERENT	1	0.573054653879808	0	0	0	RIGHT	1121.0	1
583.814453125	0.2	COHERENT	1	0.472870769866859	0	0	180	LEFT	1125.0	1
585.13427734375	0.2	RANDOM	0	0.528961127787625	0	0	0	NONE	1129.0	1
586.2744140625	0.2	COHERENT	1	0.60886011835828	0	0	0	RIGHT	1133.0	1
587.57421875	0.2	RANDOM	0	0.718534916530189	0	0	0	NONE	1137.0	1
589.13427734375	0.2	COHERENT	1	0.539435453152691	0	0	0	RIGHT	1140.0	1
590.39404296875	0.2	RANDOM	0	0.838134078367148	0	0	0	NONE	1144.0	1
591.99365234375	0.2	RANDOM	0	0.80398181927012	0	0	0	NONE	1147.0	1
593.61376953125	0.2	COHERENT	1	0.649875126699044	0	0	180	LEFT	1150.0	1
595.12353515625	0.2	COHERENT	1	0.534630381669558	0	0	0	RIGHT	1153.0	1
596.36376953125	0.2	RANDOM	0	0.548589810074191	0	0	0	NONE	1157.0	1
597.54345703125	0.2	RANDOM	0	0.683335255082056	0	0	0	NONE	1161.0	1
598.84326171875	0.2	RANDOM	0	0.642990644613747	0	0	0	NONE	1165.0	1
600.09326171875	0.2	COHERENT	1	0.617715044983925	0	0	180	LEFT	1169.0	1
601.48291015625	0.2	RANDOM	0	0.604821733326389	0	0	0	NONE	1173.0	1
602.80322265625	0.2	COHERENT	1	0.467828448170621	0	0	180	LEFT	1177.0	1
603.98291015625	0.2	RANDOM	0	0.864434743813035	0	0	0	NONE	1181.0	1
605.60302734375	0.2	RANDOM	0	0.659300238639844	0	0	0	NONE	1184.0	1
606.8828125	0.2	RANDOM	0	0.523181398617453	0	0	0	NONE	1188.0	1
608.15283203125	0.2	RANDOM	0	0.729964581500099	0	0	0	NONE	1192.0	1
609.59228515625	0.2	RANDOM	0	0.607841994977207	0	0	0	NONE	1196.0	1
610.8525390625	0.2	COHERENT	1	0.56768573583031	0	0	0	RIGHT	1200.0	1
612.2421875	0.2	COHERENT	1	0.504433802056155	0	0	180	LEFT	1204.0	1
613.572265625	0.2	COHERENT	1	0.903983087016968	0	0	180	LEFT	1208.0	1
615.3623046875	0.2	RANDOM	0	0.715035928616999	0	0	0	NONE	1211.0	1
616.82177734375	0.2	COHERENT	1	0.599897734893602	0	0	180	LEFT	1215.0	1
618.1318359375	0.2	RANDOM	0	0.707715582266246	0	0	0	NONE	1219.0	1
619.51171875	0.2	COHERENT	1	n/a	0	1	0	RIGHT	1223.0	0
621.50146484375	0.2	COHERENT	1	0.61031018201902	0	0	0	RIGHT	1224.0	1
622.861328125	0.2	RANDOM	0	0.579036317394639	0	0	0	NONE	1228.0	1
624.16162109375	0.2	COHERENT	1	0.734904275879671	0	0	0	RIGHT	1232.0	1
625.55126953125	0.2	RANDOM	0	1.08764312738276	0	0	0	NONE	1236.0	1
627.52099609375	0.2	COHERENT	1	0.584486129919242	0	0	180	LEFT	1238.0	1
628.97119140625	0.2	COHERENT	1	0.6643977979802	0	0	180	LEFT	1242.0	1
630.49072265625	0.2	RANDOM	0	0.87014987814473	0	0	0	NONE	1245.0	1
632.05078125	0.2	RANDOM	0	0.668921549866354	0	0	0	NONE	1248.0	1
633.46044921875	0.2	RANDOM	0	0.564963395248924	0	0	0	NONE	1252.0	1
634.720703125	0.2	COHERENT	1	0.657594210370007	0	0	180	LEFT	1256.0	1
636.16064453125	0.2	COHERENT	1	0.524404474796029	0	0	0	RIGHT	1260.0	1
637.43017578125	0.2	RANDOM	0	0.469079595939547	0	0	0	NONE	1264.0	1
638.59033203125	0.2	RANDOM	0	n/a	0	1	0	NONE	1268.0	0
640.43017578125	0.2	COHERENT	1	0.713855110752775	0	0	0	RIGHT	1269.0	1
641.7998046875	0.2	COHERENT	1	0.497706279405975	0	0	0	RIGHT	1273.0	1
642.94970703125	0.2	COHERENT	1	0.498499528217508	0	0	0	RIGHT	1277.0	1
644.10986328125	0.2	RANDOM	0	0.673403948978375	0	0	0	NONE	1281.0	1
645.47998046875	0.2	RANDOM	0	0.778153239491076	0	0	0	NONE	1285.0	1
647.16943359375	0.2	COHERENT	1	0.778708936242765	0	0	180	LEFT	1288.0	1
648.6494140625	0.2	RANDOM	0	0.988668434674764	0	0	0	NONE	1292.0	1
650.369140625	0.2	COHERENT	1	n/a	0	1	180	LEFT	1295.0	0
651.939453125	0.2	COHERENT	1	0.618571077568049	0	0	0	RIGHT	1298.0	1
653.208984375	0.2	RANDOM	0	0.638200363544456	0	0	0	NONE	1302.0	1
654.5390625	0.2	COHERENT	1	0.578083090702421	0	0	180	LEFT	1306.0	1
655.88916015625	0.2	RANDOM	0	0.494631383797241	0	0	0	NONE	1310.0	1
657.10888671875	0.2	COHERENT	1	0.454838847941573	0	0	180	LEFT	1314.0	1
658.4287109375	0.2	RANDOM	0	0.659590311737702	0	0	0	NONE	1318.0	1
659.87841796875	0.2	RANDOM	0	0.519369095534785	0	0	0	NONE	1322.0	1
661.04833984375	0.2	COHERENT	1	0.568270711552032	0	0	0	RIGHT	1326.0	1
662.25830078125	0.2	RANDOM	0	0.668107171899464	0	0	0	NONE	1330.0	1
663.80810546875	0.2	RANDOM	0	0.783884975298861	0	0	0	NONE	1333.0	1
665.29833984375	0.2	COHERENT	1	0.70766758890386	0	0	180	LEFT	1337.0	1
666.6279296875	0.2	COHERENT	1	n/a	0	1	180	LEFT	1341.0	0
668.73779296875	0.2	COHERENT	1	0.509057464660145	0	0	180	LEFT	1342.0	1
669.98779296875	0.2	RANDOM	0	0.66011280553721	0	0	0	NONE	1346.0	1
671.31787109375	0.2	COHERENT	1	0.502925180458988	0	0	0	RIGHT	1350.0	1
672.7177734375	0.2	COHERENT	1	0.519664903691591	0	0	0	RIGHT	1354.0	1
674.15771484375	0.2	RANDOM	0	0.549639627184661	0	0	0	NONE	1358.0	1
675.41748046875	0.2	RANDOM	0	0.604376511866576	0	0	0	NONE	1362.0	1
676.92724609375	0.2	COHERENT	1	0.659543525754998	0	0	0	RIGHT	1365.0	1
678.43701171875	0.2	COHERENT	1	0.598921567976504	0	0	180	LEFT	1368.0	1
679.85693359375	0.2	COHERENT	1	0.664876524242572	0	0	0	RIGHT	1372.0	1
681.1572265625	0.2	COHERENT	1	0.473647417202301	0	0	0	RIGHT	1376.0	1
682.30712890625	0.2	COHERENT	1	0.423581886640022	0	0	0	RIGHT	1380.0	1
683.5966796875	0.2	COHERENT	1	0.414382554805343	0	0	0	RIGHT	1384.0	1
684.91650390625	0.2	RANDOM	0	0.498185609358188	0	0	0	NONE	1388.0	1
686.06640625	0.2	RANDOM	0	0.488080138653459	0	0	0	NONE	1392.0	1
687.32666015625	0.2	COHERENT	1	0.544840290760476	0	0	0	RIGHT	1396.0	1
688.6962890625	0.2	COHERENT	1	0.47464139297881	0	0	180	LEFT	1400.0	1
690.04638671875	0.2	RANDOM	0	0.634449636851059	0	0	0	NONE	1404.0	1
691.31640625	0.2	COHERENT	1	0.523357977977867	0	0	0	RIGHT	1408.0	1
692.6162109375	0.2	COHERENT	1	0.534118754298106	0	0	0	RIGHT	1412.0	1
693.80615234375	0.2	COHERENT	1	0.508069223938946	0	0	0	RIGHT	1416.0	1
694.98583984375	0.2	COHERENT	1	0.52293237644335	0	0	0	RIGHT	1420.0	1
696.1357421875	0.2	COHERENT	1	0.553446798901859	0	0	180	LEFT	1424.0	1
697.53564453125	0.2	RANDOM	0	0.56960547039489	0	0	0	NONE	1428.0	1
698.95556640625	0.2	RANDOM	0	0.619376702030422	0	0	0	NONE	1432.0	1
700.275390625	0.2	COHERENT	1	0.508012175221666	0	0	0	RIGHT	1436.0	1
701.54541015625	0.2	RANDOM	0	0.700043888271466	0	0	0	NONE	1440.0	1
703.00537109375	0.2	COHERENT	1	0.514601452839997	0	0	180	LEFT	1444.0	1
704.29541015625	0.2	RANDOM	0	0.564486480059713	0	0	0	NONE	1448.0	1
705.71533203125	0.2	RANDOM	0	0.689435845550179	0	0	0	NONE	1452.0	1
707.125	0.2	RANDOM	0	0.444338563906058	0	0	0	NONE	1456.0	1
708.44482421875	0.2	COHERENT	1	0.834113502194668	0	0	0	RIGHT	1460.0	1
710.06494140625	0.2	COHERENT	1	0.753658211178845	0	0	0	RIGHT	1463.0	1
711.4345703125	0.2	COHERENT	1	0.563778955242014	0	0	0	RIGHT	1467.0	1
712.904296875	0.2	RANDOM	0	0.719561491572676	0	0	0	NONE	1471.0	1
714.404296875	0.2	RANDOM	0	0.604348138433124	0	0	0	NONE	1475.0	1
715.88427734375	0.2	RANDOM	0	0.64431212227646	0	0	0	NONE	1479.0	1
717.1240234375	0.2	COHERENT	1	0.728074427748652	0	0	0	RIGHT	1483.0	1
718.67431640625	0.2	COHERENT	1	0.464851350367098	0	0	0	RIGHT	1486.0	1
720.0439453125	0.2	RANDOM	0	0.619605500582111	0	0	0	NONE	1490.0	1
721.40380859375	0.2	COHERENT	1	0.549583484003961	0	0	180	LEFT	1494.0	1
722.59375	0.2	COHERENT	1	0.433123510771111	0	0	180	LEFT	1498.0	1
723.69384765625	0.2	COHERENT	1	0.393041203660687	0	0	180	LEFT	1502.0	1
724.7236328125	0.2	RANDOM	0	0.593088412228099	0	0	0	NONE	1506.0	1
726.013671875	0.2	COHERENT	1	0.608863740500965	0	0	180	LEFT	1510.0	1
727.37353515625	0.2	RANDOM	0	0.709676971455337	0	0	0	NONE	1514.0	1
728.96337890625	0.2	RANDOM	0	0.694553326662572	0	0	0	NONE	1517.0	1
730.43310546875	0.2	RANDOM	0	0.69433931851745	0	0	0	NONE	1521.0	1
731.85302734375	0.2	RANDOM	0	0.52413522900315	0	0	0	NONE	1525.0	1
733.10302734375	0.2	RANDOM	0	0.635067815532238	0	0	0	NONE	1529.0	1
734.5830078125	0.2	COHERENT	1	0.44983848270931	0	0	180	LEFT	1533.0	1
735.90283203125	0.2	COHERENT	1	0.414646971075854	0	0	180	LEFT	1537.0	1
737.22265625	0.2	COHERENT	1	0.659408902858559	0	0	180	LEFT	1541.0	1
738.482421875	0.2	COHERENT	1	0.398309305459406	0	0	180	LEFT	1545.0	1
739.63232421875	0.2	RANDOM	0	0.519042499181523	0	0	0	NONE	1549.0	1
740.822265625	0.2	COHERENT	1	0.523813462168619	0	0	0	RIGHT	1553.0	1
742.22216796875	0.2	RANDOM	0	0.843452286448155	0	0	0	NONE	1557.0	1
743.89208984375	0.2	COHERENT	1	0.544470832410298	0	0	180	LEFT	1560.0	1
745.19189453125	0.2	RANDOM	0	0.61940326439435	0	0	0	NONE	1564.0	1
746.64208984375	0.2	RANDOM	0	0.684161103159568	0	0	0	NONE	1568.0	1
747.98193359375	0.2	COHERENT	1	n/a	0	1	180	LEFT	1572.0	0
749.1416015625	0.2	RANDOM	0	0.604876669127407	0	0	0	NONE	1576.0	1
750.431640625	0.2	RANDOM	0	0.863809924543602	0	0	0	NONE	1580.0	1
752.00146484375	0.2	COHERENT	1	0.82858702102385	0	0	180	LEFT	1583.0	1
753.50146484375	0.2	COHERENT	1	0.533344521722029	0	0	0	RIGHT	1587.0	1
754.78125	0.2	RANDOM	0	0.539162585217127	0	0	0	NONE	1591.0	1
756.0009765625	0.2	COHERENT	1	0.473081457716034	0	0	180	LEFT	1595.0	1
757.22119140625	0.2	RANDOM	0	0.749024889541033	0	0	0	NONE	1599.0	1
758.6708984375	0.2	RANDOM	0	0.857603688302333	0	0	0	NONE	1603.0	1
760.291015625	0.2	COHERENT	1	0.45953223674951	0	0	180	LEFT	1606.0	1
761.541015625	0.2	RANDOM	0	0.489318307085341	0	0	0	NONE	1610.0	1
762.640625	0.2	COHERENT	1	0.42831028947694	0	0	180	LEFT	1614.0	1
763.96044921875	0.2	RANDOM	0	0.508339375268406	0	0	0	NONE	1618.0	1
765.140625	0.2	COHERENT	1	0.492900302386261	0	0	0	RIGHT	1622.0	1
803.8076171875	0.2	COHERENT	1	0.609602959048061	0	0	180	LEFT	1624.0	1
805.00732421875	0.2	COHERENT	1	0.388788810483675	0	0	180	LEFT	1628.0	1
806.13720703125	0.2	COHERENT	1	0.349682066600508	0	0	180	LEFT	1632.0	1
807.08740234375	0.2	RANDOM	0	0.558649098478782	0	0	0	NONE	1637.0	1
808.4072265625	0.2	RANDOM	0	0.528361361659336	0	0	0	NONE	1641.0	1
809.5869140625	0.2	RANDOM	0	0.558225911707268	0	0	0	NONE	1645.0	1
811.02685546875	0.2	COHERENT	1	0.465070489877689	0	0	0	RIGHT	1649.0	1
812.19677734375	0.2	RANDOM	0	0.538837196247187	0	0	0	NONE	1653.0	1
813.4267578125	0.2	COHERENT	1	0.548656819675671	0	0	180	LEFT	1657.0	1
814.8466796875	0.2	RANDOM	0	0.514573984939489	0	0	0	NONE	1661.0	1
n/a	0.2	RANDOM	0	0.534355400825007	1	0	0	NONE	n/a	1
n/a	0.2	RANDOM	0	0.403969805833185	1	0	0	NONE	n/a	1
818.6962890625	0.2	RANDOM	0	0.420069013853208	0	0	0	NONE	1665.0	1
819.83642578125	0.2	COHERENT	1	0.627838324544427	0	0	0	RIGHT	1669.0	1
821.18603515625	0.2	COHERENT	1	0.424746706717997	0	0	0	RIGHT	1673.0	1
822.24609375	0.2	COHERENT	1	0.458540072046162	0	0	0	RIGHT	1677.0	1
823.3662109375	0.2	RANDOM	0	0.658465335207438	0	0	0	NONE	1681.0	1
824.76611328125	0.2	COHERENT	1	0.749269384039508	0	0	0	RIGHT	1685.0	1
826.265625	0.2	RANDOM	0	0.499968306270603	0	0	0	NONE	1689.0	1
827.505859375	0.2	COHERENT	1	0.474951086009241	0	0	0	RIGHT	1693.0	1
828.8056640625	0.2	COHERENT	1	0.704548322071787	0	0	180	LEFT	1697.0	1
830.3056640625	0.2	RANDOM	0	0.509512647004158	0	0	0	NONE	1701.0	1
831.4052734375	0.2	COHERENT	1	0.468401651934983	0	0	0	RIGHT	1705.0	1
832.705078125	0.2	COHERENT	1	0.744306447591953	0	0	180	LEFT	1709.0	1
834.05517578125	0.2	RANDOM	0	0.628093081773841	0	0	0	NONE	1713.0	1
835.52490234375	0.2	COHERENT	1	0.558894800356939	0	0	180	LEFT	1717.0	1
836.86474609375	0.2	COHERENT	1	0.654637336181622	0	0	180	LEFT	1721.0	1
838.24462890625	0.2	COHERENT	1	0.864534956373973	0	0	180	LEFT	1725.0	1
839.86474609375	0.2	COHERENT	1	0.759304524839536	0	0	180	LEFT	1728.0	1
841.39453125	0.2	RANDOM	0	0.684088358499139	0	0	0	NONE	1731.0	1
842.8544921875	0.2	RANDOM	0	0.505223126885539	0	0	0	NONE	1735.0	1
844.234375	0.2	COHERENT	1	0.484810251142335	0	0	0	RIGHT	1739.0	1
845.46435546875	0.2	RANDOM	0	0.58961296822963	0	0	0	NONE	1743.0	1
n/a	0.2	COHERENT	1	0.474425271917426	1	0	180	LEFT	n/a	1
848.1240234375	0.2	RANDOM	0	0.539332825828751	0	0	0	NONE	1747.0	1
849.55419921875	0.2	COHERENT	1	0.759029845834448	0	0	0	RIGHT	1751.0	1
851.0537109375	0.2	RANDOM	0	0.82991272451909	0	0	0	NONE	1755.0	1
852.62353515625	0.2	COHERENT	1	0.924679093426676	0	0	0	RIGHT	1758.0	1
854.37353515625	0.2	COHERENT	1	0.634505478188657	0	0	180	LEFT	1761.0	1
855.86328125	0.2	COHERENT	1	0.569142741922406	0	0	180	LEFT	1765.0	1
857.04345703125	0.2	COHERENT	1	0.583068363681377	0	0	180	LEFT	1769.0	1
858.22314453125	0.2	RANDOM	0	0.557975380306743	0	0	0	NONE	1773.0	1
859.443359375	0.2	RANDOM	0	1.12737076654957	0	0	0	NONE	1777.0	1
861.18310546875	0.2	COHERENT	1	0.678331871396949	0	0	180	LEFT	1779.0	1
862.5830078125	0.2	RANDOM	0	0.614341322769178	0	0	0	NONE	1783.0	1
863.86279296875	0.2	COHERENT	1	0.773223204159876	0	0	0	RIGHT	1787.0	1
865.5126953125	0.2	RANDOM	0	0.594013265486865	0	0	0	NONE	1790.0	1
866.732421875	0.2	RANDOM	0	0.562935901994933	0	0	0	NONE	1794.0	1
868.20263671875	0.2	COHERENT	1	0.459802689922071	0	0	180	LEFT	1798.0	1
869.2724609375	0.2	RANDOM	0	0.668528245754715	0	0	0	NONE	1802.0	1
870.54248046875	0.2	COHERENT	1	0.50834088449119	0	0	0	RIGHT	1806.0	1
871.89208984375	0.2	RANDOM	0	0.579289263554529	0	0	0	NONE	1810.0	1
873.072265625	0.2	COHERENT	1	0.447876489830378	0	0	0	RIGHT	1814.0	1
874.27197265625	0.2	COHERENT	1	0.51987800630377	0	0	180	LEFT	1818.0	1
875.4921875	0.2	COHERENT	1	0.418757195231592	0	0	180	LEFT	1822.0	1
876.591796875	0.2	COHERENT	1	0.563542006868374	0	0	180	LEFT	1826.0	1
878.03173828125	0.2	RANDOM	0	0.504491756310017	0	0	0	NONE	1830.0	1
879.26171875	0.2	RANDOM	0	0.614283670362056	0	0	0	NONE	1834.0	1
880.53173828125	0.2	RANDOM	0	0.768050183549349	0	0	0	NONE	1838.0	1
881.95166015625	0.2	RANDOM	0	0.508025154558709	0	0	0	NONE	1842.0	1
883.1513671875	0.2	COHERENT	1	n/a	0	1	180	LEFT	1846.0	0
884.18115234375	0.2	RANDOM	0	0.623557256083586	0	0	0	NONE	1850.0	1
885.451171875	0.2	RANDOM	0	1.1170929423206	0	0	0	NONE	1854.0	1
887.22119140625	0.2	RANDOM	0	0.777891841669771	0	0	0	NONE	1856.0	1
888.60107421875	0.2	COHERENT	1	0.579028771269805	0	0	0	RIGHT	1860.0	1
890.0009765625	0.2	RANDOM	0	0.624899259211816	0	0	0	NONE	1864.0	1
891.54052734375	0.2	COHERENT	1	0.559710083856771	0	0	180	LEFT	1867.0	1
892.82080078125	0.2	COHERENT	1	0.37456466396543	0	0	0	RIGHT	1871.0	1
893.890625	0.2	COHERENT	1	0.428343794275861	0	0	180	LEFT	1875.0	1
894.970703125	0.2	RANDOM	0	0.518293017903488	0	0	0	NONE	1879.0	1
896.29052734375	0.2	RANDOM	0	0.589063610226731	0	0	0	NONE	1883.0	1
897.47021484375	0.2	RANDOM	0	0.597745579627372	0	0	0	NONE	1887.0	1
898.7099609375	0.2	RANDOM	0	0.543823676605825	0	0	0	NONE	1891.0	1
900.080078125	0.2	COHERENT	1	0.414620710555027	0	0	0	RIGHT	1895.0	1
901.259765625	0.2	COHERENT	1	0.424474442475912	0	0	180	LEFT	1899.0	1
902.60009765625	0.2	RANDOM	0	0.609318017312034	0	0	0	NONE	1903.0	1
903.82958984375	0.2	RANDOM	0	0.763069136402919	0	0	0	NONE	1907.0	1
905.2998046875	0.2	RANDOM	0	0.72794342699126	0	0	0	NONE	1911.0	1
906.74951171875	0.2	COHERENT	1	0.36475832171709	0	0	0	RIGHT	1915.0	1
907.8193359375	0.2	RANDOM	0	0.678603230102453	0	0	0	NONE	1919.0	1
909.3193359375	0.2	COHERENT	1	0.914310111991654	0	0	0	RIGHT	1923.0	1
911.09912109375	0.2	RANDOM	0	0.614259522761131	0	0	0	NONE	1926.0	1
912.369140625	0.2	RANDOM	0	0.598054970814701	0	0	0	NONE	1930.0	1
913.7890625	0.2	COHERENT	1	0.384790872689337	0	0	0	RIGHT	1934.0	1
914.958984375	0.2	RANDOM	0	0.684699896588427	0	0	0	NONE	1938.0	1
916.40869140625	0.2	COHERENT	1	0.654496072693291	0	0	180	LEFT	1942.0	1
917.77880859375	0.2	COHERENT	1	0.778312311838818	0	0	0	RIGHT	1946.0	1
919.27880859375	0.2	COHERENT	1	0.404220639080449	0	0	0	RIGHT	1950.0	1
920.32861328125	0.2	RANDOM	0	0.468039437866537	0	0	0	NONE	1954.0	1
921.57861328125	0.2	RANDOM	0	0.614800730949355	0	0	0	NONE	1958.0	1
922.79833984375	0.2	COHERENT	1	0.797598701825336	0	0	0	RIGHT	1962.0	1
924.328125	0.2	RANDOM	0	0.979456727192883	0	0	0	NONE	1965.0	1
926.1982421875	0.2	COHERENT	1	0.704288735323644	0	0	0	RIGHT	1968.0	1
927.7978515625	0.2	RANDOM	0	0.820001340191084	0	0	0	NONE	1971.0	1
929.36767578125	0.2	RANDOM	0	1.13977176891785	0	0	0	NONE	1974.0	1
931.337890625	0.2	COHERENT	1	0.584319209599926	0	0	180	LEFT	1976.0	1
932.58740234375	0.2	COHERENT	1	0.563521179563395	0	0	180	LEFT	1980.0	1
933.83740234375	0.2	RANDOM	0	0.603281116153084	0	0	0	NONE	1984.0	1
935.33740234375	0.2	COHERENT	1	0.409158824226324	0	0	0	RIGHT	1988.0	1
936.5673828125	0.2	RANDOM	0	0.72500587088507	0	0	0	NONE	1992.0	1
938.02734375	0.2	COHERENT	1	0.515385948147014	0	0	180	LEFT	1996.0	1
939.23681640625	0.2	RANDOM	0	0.497570147279475	0	0	0	NONE	2000.0	1
940.35693359375	0.2	COHERENT	1	0.443549540923414	0	0	0	RIGHT	2004.0	1
941.5068359375	0.2	COHERENT	1	0.548642331112205	0	0	0	RIGHT	2008.0	1
942.95654296875	0.2	COHERENT	1	0.598035954575607	0	0	0	RIGHT	2012.0	1
944.32666015625	0.2	COHERENT	1	0.434955408429232	0	0	0	RIGHT	2016.0	1
945.36669921875	0.2	COHERENT	1	0.538881869313627	0	0	0	RIGHT	2020.0	1
946.5166015625	0.2	COHERENT	1	0.668450067885715	0	0	180	LEFT	2024.0	1
947.826171875	0.2	RANDOM	0	0.638479268374795	0	0	0	NONE	2028.0	1
949.16650390625	0.2	COHERENT	1	0.708333760947426	0	0	180	LEFT	2032.0	1
950.63623046875	0.2	COHERENT	1	0.629093698138604	0	0	0	RIGHT	2036.0	1
951.98583984375	0.2	COHERENT	1	0.764853040698654	0	0	180	LEFT	2040.0	1
953.416015625	0.2	RANDOM	0	0.702711293048196	0	0	0	NONE	2044.0	1
954.8056640625	0.2	RANDOM	0	0.583661187374673	0	0	0	NONE	2048.0	1
956.0556640625	0.2	RANDOM	0	0.413477925165353	0	0	0	NONE	2052.0	1
957.37548828125	0.2	COHERENT	1	0.400272807561123	0	0	0	RIGHT	2056.0	1
958.40576171875	0.2	RANDOM	0	0.703060225936497	0	0	0	NONE	2060.0	1
959.9052734375	0.2	RANDOM	0	1.149705791624	0	0	0	NONE	2064.0	1
961.87548828125	0.2	RANDOM	0	0.834599774581875	0	0	0	NONE	2066.0	1
963.59521484375	0.2	COHERENT	1	0.594440376240527	0	0	0	RIGHT	2069.0	1
965.06494140625	0.2	RANDOM	0	0.56452934205663	0	0	0	NONE	2073.0	1
966.47509765625	0.2	RANDOM	0	0.539058750517142	0	0	0	NONE	2077.0	1
967.8447265625	0.2	RANDOM	0	0.564964300785505	0	0	0	NONE	2081.0	1
969.03466796875	0.2	RANDOM	0	0.592734649821068	0	0	0	NONE	2085.0	1
970.44482421875	0.2	COHERENT	1	0.93454399361508	0	0	0	RIGHT	2089.0	1
972.28466796875	0.2	COHERENT	1	n/a	0	1	0	RIGHT	2092.0	0
974.33447265625	0.2	RANDOM	0	0.699812674956775	0	0	0	NONE	2093.0	1
975.654296875	0.2	COHERENT	1	0.553927336237393	0	0	180	LEFT	2097.0	1
977.1240234375	0.2	RANDOM	0	0.699722725130414	0	0	0	NONE	2101.0	1
978.72412109375	0.2	RANDOM	0	0.798485522605915	0	0	0	NONE	2104.0	1
980.40380859375	0.2	RANDOM	0	0.779381748878222	0	0	0	NONE	2107.0	1
981.923828125	0.2	COHERENT	1	0.594153925285354	0	0	0	RIGHT	2110.0	1
983.20361328125	0.2	COHERENT	1	0.55886703060969	0	0	180	LEFT	2114.0	1
984.67333984375	0.2	COHERENT	1	0.618684269462392	0	0	180	LEFT	2118.0	1
986.11328125	0.2	COHERENT	1	0.544637149036134	0	0	180	LEFT	2122.0	1
987.4931640625	0.2	COHERENT	1	0.444466848053708	0	0	180	LEFT	2126.0	1
988.5830078125	0.2	COHERENT	1	0.448109514214593	0	0	0	RIGHT	2130.0	1
989.6630859375	0.2	RANDOM	0	0.713127664159401	0	0	0	NONE	2134.0	1
991.11279296875	0.2	COHERENT	1	0.659913587798655	0	0	180	LEFT	2138.0	1
992.4130859375	0.2	COHERENT	1	0.642798369310185	0	0	180	LEFT	2142.0	1
993.65283203125	0.2	RANDOM	0	0.70852060303514	0	0	0	NONE	2146.0	1
994.962890625	0.2	RANDOM	0	0.618216711471177	0	0	0	NONE	2150.0	1
996.232421875	0.2	RANDOM	0	0.568402315995627	0	0	0	NONE	2154.0	1
997.6025390625	0.2	RANDOM	0	0.589019238999754	0	0	0	NONE	2158.0	1
999.0322265625	0.2	RANDOM	0	0.449990310771682	0	0	0	NONE	2162.0	1
1000.08251953125	0.2	RANDOM	0	0.517918428184203	0	0	0	NONE	2166.0	1
1001.4921875	0.2	RANDOM	0	0.955785132198798	0	0	0	NONE	2170.0	1
1003.1220703125	0.2	COHERENT	1	n/a	0	1	0	RIGHT	2173.0	0
1004.6220703125	0.2	RANDOM	0	0.672419934089703	0	0	0	NONE	2177.0	1
1006.171875	0.2	COHERENT	1	0.471980628790334	0	0	0	RIGHT	2180.0	1
