onset	duration	trial_type	trial_type_id	response_time	bad_epoch	outliers	event_num	response_accuracy
53.59033203125	0.2	SCRAMBLED	0	1.10489085584413	0	0	1.0	1
55.6103515625	0.2	SCRAMBLED	0	0.75976725331202	0	0	5.0	1
57.30029296875	0.2	SCRAMBLED	0	0.663545991228602	0	0	11.0	1
58.830078125	0.2	FACES	1	0.613409828922158	0	0	17.0	1
60.330078125	0.2	SCRAMBLED	0	0.664249290213775	0	0	24.0	1
61.919921875	0.2	SCRAMBLED	0	n/a	0	1	30.0	0
63.7197265625	0.2	FACES	1	0.442542585809861	0	0	32.0	1
65.08935546875	0.2	SCRAMBLED	0	0.728607787965302	0	0	40.0	1
66.7392578125	0.2	SCRAMBLED	0	0.67373748776663	0	0	46.0	1
68.369140625	0.2	FACES	1	0.54106843491536	0	0	52.0	1
69.80908203125	0.2	SCRAMBLED	0	0.605019441838522	0	0	60.0	1
71.17919921875	0.2	SCRAMBLED	0	0.597834020234586	0	0	68.0	1
72.5888671875	0.2	FACES	1	0.558329746407253	0	0	76.0	1
73.98876953125	0.2	SCRAMBLED	0	0.624355334417487	0	0	84.0	1
75.3984375	0.2	FACES	1	0.588257985764358	0	0	92.0	1
76.94873046875	0.2	FACES	1	0.663086884895165	0	0	98.0	1
78.54833984375	0.2	FACES	1	0.618843341813772	0	0	104.0	1
79.92822265625	0.2	FACES	1	0.719748333664029	0	0	112.0	1
81.3681640625	0.2	SCRAMBLED	0	0.797486113617197	0	0	120.0	1
83.06787109375	0.2	FACES	1	0.593394181272743	0	0	126.0	1
84.59814453125	0.2	FACES	1	0.487074692766328	0	0	132.0	1
86.01806640625	0.2	SCRAMBLED	0	0.473864141953527	0	0	140.0	1
87.23779296875	0.2	FACES	1	0.787760665843962	0	0	148.0	1
88.95751953125	0.2	SCRAMBLED	0	0.704519646795234	0	0	153.0	1
90.3876953125	0.2	FACES	1	0.617318118733237	0	0	161.0	1
91.88720703125	0.2	FACES	1	0.5382600684934	0	0	168.0	1
93.27734375	0.2	FACES	1	0.643884709676058	0	0	176.0	1
94.6572265625	0.2	FACES	1	0.656862236104644	0	0	184.0	1
96.22705078125	0.2	SCRAMBLED	0	0.569703268196463	0	0	190.0	1
97.5068359375	0.2	FACES	1	0.581497863840923	0	0	198.0	1
98.89697265625	0.2	FACES	1	0.613315653263271	0	0	206.0	1
100.2666015625	0.2	SCRAMBLED	0	0.678037874309666	0	0	214.0	1
101.8466796875	0.2	SCRAMBLED	0	0.599967159258085	0	0	220.0	1
103.1865234375	0.2	FACES	1	0.657739699687227	0	0	228.0	1
104.78662109375	0.2	FACES	1	0.638284276468767	0	0	234.0	1
106.1162109375	0.2	FACES	1	0.712302721614833	0	0	242.0	1
107.71630859375	0.2	FACES	1	0.637978205577383	0	0	248.0	1
109.0859375	0.2	SCRAMBLED	0	0.811946001125762	0	0	256.0	1
110.80615234375	0.2	FACES	1	0.49378199180137	0	0	261.0	1
112.18603515625	0.2	FACES	1	0.598567201879632	0	0	269.0	1
113.5859375	0.2	SCRAMBLED	0	0.539504877517174	0	0	277.0	1
115.025390625	0.2	SCRAMBLED	0	0.583234076613735	0	0	285.0	1
116.25537109375	0.2	FACES	1	0.562075341735181	0	0	293.0	1
117.6455078125	0.2	SCRAMBLED	0	0.599014234408969	0	0	301.0	1
119.16552734375	0.2	SCRAMBLED	0	0.964594782064523	0	0	307.0	1
120.89501953125	0.2	SCRAMBLED	0	0.657148687063454	0	0	312.0	1
122.39501953125	0.2	SCRAMBLED	0	0.574274409755162	0	0	320.0	1
123.794921875	0.2	FACES	1	0.668063404365967	0	0	328.0	1
125.4150390625	0.2	FACES	1	0.573941474656749	0	0	334.0	1
126.73486328125	0.2	SCRAMBLED	0	0.781486816311372	0	0	342.0	1
128.25439453125	0.2	SCRAMBLED	0	1.04203826308731	0	0	348.0	1
130.1044921875	0.2	FACES	1	0.693039271853195	0	0	352.0	1
131.6044921875	0.2	FACES	1	0.942020997550571	0	0	359.0	1
133.2041015625	0.2	SCRAMBLED	0	0.70385981349682	0	0	365.0	1
134.8740234375	0.2	FACES	1	0.547600663816411	0	0	371.0	1
136.25390625	0.2	FACES	1	0.580534374417766	0	0	379.0	1
137.673828125	0.2	FACES	1	0.810250537437241	0	0	387.0	1
139.37353515625	0.2	SCRAMBLED	0	0.638969766594528	0	0	393.0	1
140.7138671875	0.2	SCRAMBLED	0	0.929679760505678	0	0	401.0	1
142.36328125	0.2	SCRAMBLED	0	1.01669746492189	0	0	407.0	1
144.3134765625	0.2	SCRAMBLED	0	0.783419530220272	0	0	411.0	1
145.75341796875	0.2	SCRAMBLED	0	0.767275950976909	0	0	419.0	1
147.48291015625	0.2	SCRAMBLED	0	0.508052018769376	0	0	424.0	1
148.85302734375	0.2	SCRAMBLED	0	0.648805991502741	0	0	432.0	1
150.2529296875	0.2	FACES	1	0.582707658835716	0	0	440.0	1
151.552734375	0.2	SCRAMBLED	0	0.667537288431049	0	0	448.0	1
152.95263671875	0.2	SCRAMBLED	0	0.58230046985409	0	0	456.0	1
154.45263671875	0.2	FACES	1	0.563255857756303	0	0	463.0	1
155.92236328125	0.2	SCRAMBLED	0	0.63802740632309	0	0	471.0	1
157.5224609375	0.2	SCRAMBLED	0	0.708772945505189	0	0	477.0	1
159.1923828125	0.2	FACES	1	0.980518014413974	0	0	483.0	1
160.9619140625	0.2	FACES	1	0.506125039919425	0	0	488.0	1
162.3818359375	0.2	FACES	1	0.589033727563219	0	0	496.0	1
163.8818359375	0.2	FACES	1	0.557980511675851	0	0	503.0	1
165.20166015625	0.2	SCRAMBLED	0	0.651755017719552	0	0	511.0	1
166.58154296875	0.2	FACES	1	0.633542894294806	0	0	519.0	1
167.931640625	0.2	SCRAMBLED	0	0.594455166650732	0	0	527.0	1
169.42138671875	0.2	FACES	1	0.487281758476456	0	0	535.0	1
170.7314453125	0.2	FACES	1	0.628000717184477	0	0	543.0	1
172.22119140625	0.2	FACES	1	0.483711836975999	0	0	551.0	1
173.4912109375	0.2	FACES	1	0.58873641017999	0	0	559.0	1
174.7412109375	0.2	SCRAMBLED	0	0.556434461290337	0	0	567.0	1
175.95068359375	0.2	SCRAMBLED	0	0.838431395750376	0	0	575.0	1
177.470703125	0.2	FACES	1	0.717218570232944	0	0	581.0	1
178.9208984375	0.2	FACES	1	0.616995748208865	0	0	589.0	1
180.24072265625	0.2	FACES	1	0.761795953949331	0	0	597.0	1
181.9404296875	0.2	SCRAMBLED	0	0.563574002444511	0	0	603.0	1
183.18017578125	0.2	FACES	1	0.610518153262092	0	0	611.0	1
184.59033203125	0.2	FACES	1	0.580269958147255	0	0	619.0	1
186.01025390625	0.2	SCRAMBLED	0	0.609050582588679	0	0	627.0	1
187.330078125	0.2	SCRAMBLED	0	0.630972683626169	0	0	635.0	1
188.72998046875	0.2	FACES	1	0.584743905597861	0	0	643.0	1
190.02001953125	0.2	SCRAMBLED	0	0.605570912761323	0	0	651.0	1
191.27978515625	0.2	FACES	1	0.699439896310651	0	0	659.0	1
192.939453125	0.2	SCRAMBLED	0	0.636218147046748	0	0	665.0	1
194.3896484375	0.2	SCRAMBLED	0	0.64899072067783	0	0	673.0	1
195.94921875	0.2	SCRAMBLED	0	0.678780111309607	0	0	679.0	1
197.359375	0.2	FACES	1	0.627668385772267	0	0	687.0	1
198.7890625	0.2	FACES	1	0.503441939199547	0	0	695.0	1
200.10888671875	0.2	SCRAMBLED	0	0.57807735564711	0	0	703.0	1
201.47900390625	0.2	FACES	1	0.54806641074174	0	0	711.0	1
202.9287109375	0.2	SCRAMBLED	0	0.509045089009305	0	0	719.0	1
204.138671875	0.2	SCRAMBLED	0	0.677785229996516	0	0	727.0	1
205.6484375	0.2	SCRAMBLED	0	0.757516696561652	0	0	733.0	1
207.19873046875	0.2	FACES	1	0.614474134592456	0	0	739.0	1
208.74853515625	0.2	SCRAMBLED	0	0.623337512879516	0	0	745.0	1
210.318359375	0.2	FACES	1	1.01798543778568	0	0	751.0	1
212.01806640625	0.2	SCRAMBLED	0	0.551763710860541	0	0	755.0	1
213.4482421875	0.2	SCRAMBLED	0	0.533534684109327	0	0	763.0	1
214.94775390625	0.2	SCRAMBLED	0	0.507438971457304	0	0	771.0	1
216.41796875	0.2	FACES	1	0.468253144168557	0	0	779.0	1
217.7177734375	0.2	FACES	1	0.607979032633011	0	0	787.0	1
219.03759765625	0.2	FACES	1	0.651950009629218	0	0	795.0	1
220.62744140625	0.2	SCRAMBLED	0	0.573711166878638	0	0	801.0	1
221.9873046875	0.2	SCRAMBLED	0	0.583476156352845	0	0	809.0	1
223.357421875	0.2	SCRAMBLED	0	0.694281666113966	0	0	817.0	1
224.95703125	0.2	FACES	1	0.703808499834849	0	0	823.0	1
226.45703125	0.2	FACES	1	0.642014477696648	0	0	830.0	1
227.80712890625	0.2	FACES	1	0.641721989835787	0	0	838.0	1
229.19677734375	0.2	SCRAMBLED	0	0.562519959505153	0	0	846.0	1
230.66650390625	0.2	SCRAMBLED	0	0.579459504166152	0	0	854.0	1
232.04638671875	0.2	FACES	1	0.590098636926996	0	0	862.0	1
233.54638671875	0.2	SCRAMBLED	0	0.579995580988907	0	0	869.0	1
234.81640625	0.2	SCRAMBLED	0	0.900827900626609	0	0	877.0	1
236.65625	0.2	FACES	1	0.508927067592595	0	0	882.0	1
237.85595703125	0.2	SCRAMBLED	0	0.652467372059618	0	0	890.0	1
239.43603515625	0.2	SCRAMBLED	0	0.633241351082688	0	0	896.0	1
240.98583984375	0.2	SCRAMBLED	0	0.549766100266424	0	0	902.0	1
242.48583984375	0.2	FACES	1	0.502963816623378	0	0	909.0	1
243.7255859375	0.2	SCRAMBLED	0	0.702721555782773	0	0	917.0	1
245.25537109375	0.2	FACES	1	0.638466590880853	0	0	923.0	1
246.60546875	0.2	FACES	1	0.722268136207276	0	0	931.0	1
248.1953125	0.2	SCRAMBLED	0	0.738044370016723	0	0	937.0	1
249.7451171875	0.2	FACES	1	0.744109342766023	0	0	943.0	1
251.365234375	0.2	FACES	1	0.707730976366292	0	0	949.0	1
252.884765625	0.2	SCRAMBLED	0	0.628510231639666	0	0	955.0	1
254.44482421875	0.2	SCRAMBLED	0	0.51340131688994	0	0	961.0	1
255.91455078125	0.2	FACES	1	0.443062061156525	0	0	969.0	1
257.0546875	0.2	FACES	1	0.677009186354553	0	0	977.0	1
258.384765625	0.2	FACES	1	0.561906610346341	0	0	985.0	1
259.734375	0.2	SCRAMBLED	0	0.69467617760165	0	0	993.0	1
261.38427734375	0.2	FACES	1	0.643439186373143	0	0	999.0	1
262.7841796875	0.2	SCRAMBLED	0	0.547292480012402	0	0	1007.0	1
263.994140625	0.2	FACES	1	0.621158493406256	0	0	1015.0	1
265.423828125	0.2	FACES	1	0.552968978176068	0	0	1023.0	1
266.64404296875	0.2	SCRAMBLED	0	0.666601870594604	0	0	1031.0	1
268.0439453125	0.2	FACES	1	0.675660542630794	0	0	1039.0	1
269.513671875	0.2	SCRAMBLED	0	0.670436812055414	0	0	1047.0	1
271.04345703125	0.2	SCRAMBLED	0	0.613283657683496	0	0	1053.0	1
272.41357421875	0.2	FACES	1	0.716020849042252	0	0	1061.0	1
362.71630859375	0.2	FACES	1	0.673451036807819	0	0	1065.0	1
364.31640625	0.2	FACES	1	0.473428881381551	0	0	1071.0	1
365.6865234375	0.2	SCRAMBLED	0	0.490089823055314	0	0	1079.0	1
367.10595703125	0.2	FACES	1	0.437986234657728	0	0	1087.0	1
368.43603515625	0.2	SCRAMBLED	0	0.453777862559946	0	0	1095.0	1
369.60595703125	0.2	SCRAMBLED	0	0.527629387393972	0	0	1103.0	1
371.03564453125	0.2	FACES	1	0.50294359300824	0	0	1111.0	1
372.18603515625	0.2	FACES	1	0.561250097343873	0	0	1119.0	1
373.60546875	0.2	FACES	1	0.403023219732859	0	0	1127.0	1
374.92578125	0.2	SCRAMBLED	0	0.448957698827144	0	0	1135.0	1
376.04541015625	0.2	SCRAMBLED	0	0.586755702912342	0	0	1143.0	1
377.29541015625	0.2	SCRAMBLED	0	0.557640634142444	0	0	1151.0	1
378.775390625	0.2	FACES	1	0.538404048587836	0	0	1159.0	1
380.2451171875	0.2	FACES	1	0.468212093241164	0	0	1167.0	1
381.64501953125	0.2	FACES	1	0.369106399779412	0	0	1175.0	1
382.98486328125	0.2	SCRAMBLED	0	0.428913677744276	0	0	1183.0	1
384.23486328125	0.2	FACES	1	0.538698045675119	0	0	1191.0	1
385.56494140625	0.2	SCRAMBLED	0	0.574623946333304	0	0	1199.0	1
386.884765625	0.2	FACES	1	0.6423917840184	0	0	1207.0	1
388.21435546875	0.2	FACES	1	0.607211742499203	0	0	1215.0	1
389.58447265625	0.2	FACES	1	0.541958575991885	0	0	1223.0	1
391.08447265625	0.2	SCRAMBLED	0	0.597786026868562	0	0	1230.0	1
392.33447265625	0.2	FACES	1	0.392768939418602	0	0	1238.0	1
393.5341796875	0.2	SCRAMBLED	0	0.55818727553924	0	0	1246.0	1
394.84423828125	0.2	SCRAMBLED	0	0.452375188575388	0	0	1254.0	1
395.9541015625	0.2	SCRAMBLED	0	0.408415681697079	0	0	1262.0	1
397.2939453125	0.2	FACES	1	0.506101496004703	0	0	1270.0	1
398.673828125	0.2	FACES	1	0.518851733100746	0	0	1278.0	1
399.94384765625	0.2	FACES	1	0.416716118950717	0	0	1286.0	1
401.013671875	0.2	FACES	1	0.862484522891464	0	0	1294.0	1
402.5634765625	0.2	SCRAMBLED	0	0.473425862932345	0	0	1300.0	1
403.79345703125	0.2	FACES	1	0.621932424135593	0	0	1308.0	1
405.09326171875	0.2	FACES	1	0.458106924386811	0	0	1316.0	1
406.26318359375	0.2	SCRAMBLED	0	0.548226086779323	0	0	1324.0	1
407.712890625	0.2	FACES	1	0.562415822958428	0	0	1332.0	1
408.953125	0.2	SCRAMBLED	0	0.617597023567214	0	0	1340.0	1
410.47265625	0.2	FACES	1	0.523377597906801	0	0	1346.0	1
411.8525390625	0.2	FACES	1	0.573292809629493	0	0	1354.0	1
413.3525390625	0.2	SCRAMBLED	0	0.553950276462274	0	0	1361.0	1
414.62255859375	0.2	FACES	1	0.651718494467787	0	0	1369.0	1
415.95263671875	0.2	SCRAMBLED	0	0.862632125128584	0	0	1377.0	1
417.6220703125	0.2	FACES	1	0.563528423845128	0	0	1383.0	1
418.92236328125	0.2	SCRAMBLED	0	0.580353569224826	0	0	1391.0	1
420.39208984375	0.2	SCRAMBLED	0	0.574113828184636	0	0	1399.0	1
421.7421875	0.2	FACES	1	0.458932470621221	0	0	1407.0	1
422.8818359375	0.2	SCRAMBLED	0	0.607873990556982	0	0	1415.0	1
424.44189453125	0.2	SCRAMBLED	0	0.568638962522527	0	0	1421.0	1
425.8515625	0.2	FACES	1	0.518522118298279	0	0	1429.0	1
427.111328125	0.2	FACES	1	0.671223118435591	0	0	1437.0	1
428.6015625	0.2	FACES	1	0.413097298547655	0	0	1445.0	1
429.92138671875	0.2	FACES	1	0.45393814228737	0	0	1453.0	1
431.3310546875	0.2	SCRAMBLED	0	0.408801137833507	0	0	1461.0	1
432.701171875	0.2	FACES	1	0.523464529280318	0	0	1469.0	1
434.19091796875	0.2	SCRAMBLED	0	0.418597519194009	0	0	1477.0	1
435.52099609375	0.2	SCRAMBLED	0	0.56697851285935	0	0	1485.0	1
436.8408203125	0.2	SCRAMBLED	0	0.48796392830991	0	0	1493.0	1
438.04052734375	0.2	SCRAMBLED	0	0.447874678760854	0	0	1501.0	1
439.4404296875	0.2	FACES	1	0.463659967921558	0	0	1509.0	1
440.720703125	0.2	SCRAMBLED	0	0.488566411044303	0	0	1517.0	1
442.13037109375	0.2	FACES	1	0.311345933150733	0	0	1525.0	1
443.240234375	0.2	SCRAMBLED	0	0.517161400777695	0	0	1533.0	1
444.64013671875	0.2	SCRAMBLED	0	0.603944873433647	0	0	1541.0	1
445.9599609375	0.2	SCRAMBLED	0	0.456840080674738	0	0	1549.0	1
447.22998046875	0.2	SCRAMBLED	0	0.538694725379173	0	0	1557.0	1
448.580078125	0.2	SCRAMBLED	0	0.448208821242588	0	0	1565.0	1
449.77978515625	0.2	FACES	1	0.432387310673221	0	0	1573.0	1
450.9296875	0.2	SCRAMBLED	0	0.678096734096471	0	0	1581.0	1
452.51953125	0.2	FACES	1	0.543956488432741	0	0	1587.0	1
453.76953125	0.2	SCRAMBLED	0	0.667829172602069	0	0	1595.0	1
455.16943359375	0.2	SCRAMBLED	0	0.692618801687786	0	0	1603.0	1
456.79931640625	0.2	FACES	1	0.568225434792112	0	0	1609.0	1
458.109375	0.2	FACES	1	0.766291332398396	0	0	1617.0	1
459.6689453125	0.2	FACES	1	0.662840579323529	0	0	1623.0	1
461.0888671875	0.2	FACES	1	0.94211426766924	0	0	1631.0	1
462.7587890625	0.2	SCRAMBLED	0	0.656413996195624	0	0	1637.0	1
464.228515625	0.2	SCRAMBLED	0	0.878413188453123	0	0	1645.0	1
466.0087890625	0.2	FACES	1	0.673346296574891	0	0	1650.0	1
467.3583984375	0.2	SCRAMBLED	0	0.573158790422895	0	0	1658.0	1
468.59814453125	0.2	FACES	1	0.600868770445231	0	0	1666.0	1
469.97802734375	0.2	SCRAMBLED	0	0.71466073521151	0	0	1674.0	1
471.42822265625	0.2	FACES	1	0.516590913619439	0	0	1682.0	1
472.748046875	0.2	FACES	1	0.533370480396115	0	0	1690.0	1
474.19775390625	0.2	FACES	1	0.443048478126002	0	0	1698.0	1
475.31787109375	0.2	SCRAMBLED	0	0.543081137762783	0	0	1706.0	1
476.64794921875	0.2	FACES	1	0.509005245465232	0	0	1714.0	1
477.81787109375	0.2	SCRAMBLED	0	0.526828592453967	0	0	1722.0	1
479.25732421875	0.2	FACES	1	0.703590567703941	0	0	1730.0	1
480.92724609375	0.2	SCRAMBLED	0	0.708354890102783	0	0	1736.0	1
482.30712890625	0.2	FACES	1	0.627140156924725	0	0	1744.0	1
483.83740234375	0.2	SCRAMBLED	0	0.548915500890871	0	0	1750.0	1
485.22705078125	0.2	SCRAMBLED	0	0.513837784845236	0	0	1758.0	1
486.626953125	0.2	SCRAMBLED	0	0.433579598655342	0	0	1766.0	1
487.796875	0.2	FACES	1	0.557415155879426	0	0	1774.0	1
489.296875	0.2	SCRAMBLED	0	0.613334669498727	0	0	1781.0	1
490.61669921875	0.2	FACES	1	0.6030972925073	0	0	1789.0	1
492.146484375	0.2	FACES	1	0.617877739467076	0	0	1795.0	1
493.4462890625	0.2	FACES	1	0.507861252695875	0	0	1803.0	1
494.84619140625	0.2	SCRAMBLED	0	0.573388494511164	0	0	1811.0	1
496.13623046875	0.2	SCRAMBLED	0	0.607377455435198	0	0	1819.0	1
497.46630859375	0.2	FACES	1	0.656288126803702	0	0	1827.0	1
498.98583984375	0.2	SCRAMBLED	0	0.719151585984946	0	0	1833.0	1
500.6357421875	0.2	FACES	1	0.578849173456547	0	0	1839.0	1
502.0556640625	0.2	SCRAMBLED	0	0.893595089342853	0	0	1847.0	1
503.87548828125	0.2	SCRAMBLED	0	0.583376245638647	0	0	1852.0	1
n/a	0.2	SCRAMBLED	0	0.838157320438768	1	0	n/a	1
506.87548828125	0.2	SCRAMBLED	0	1.00890865504334	0	0	1859.0	1
508.79541015625	0.2	FACES	1	0.423832719883649	0	0	1863.0	1
509.9951171875	0.2	FACES	1	0.648601944245456	0	0	1871.0	1
511.5751953125	0.2	SCRAMBLED	0	0.553385222512588	0	0	1877.0	1
512.96484375	0.2	FACES	1	0.548286757635651	0	0	1885.0	1
514.48486328125	0.2	SCRAMBLED	0	0.658906028991623	0	0	1891.0	1
515.81494140625	0.2	FACES	1	0.516877364578249	0	0	1899.0	1
517.3046875	0.2	FACES	1	0.659698975960055	0	0	1907.0	1
518.88427734375	0.2	SCRAMBLED	0	0.562539277587348	0	0	1913.0	1
520.234375	0.2	FACES	1	0.608367205379182	0	0	1921.0	1
521.80419921875	0.2	SCRAMBLED	0	0.538155630103574	0	0	1927.0	1
523.30419921875	0.2	FACES	1	0.583923188882181	0	0	1934.0	1
524.744140625	0.2	FACES	1	0.803605116634571	0	0	1942.0	1
526.40380859375	0.2	FACES	1	0.512575166965689	0	0	1948.0	1
527.60400390625	0.2	SCRAMBLED	0	0.542351880099886	0	0	1956.0	1
529.02392578125	0.2	SCRAMBLED	0	0.523154836253525	0	0	1964.0	1
530.3935546875	0.2	SCRAMBLED	0	0.725097933627694	0	0	1972.0	1
531.9736328125	0.2	SCRAMBLED	0	0.469591223310999	0	0	1978.0	1
533.2333984375	0.2	FACES	1	0.569368220181786	0	0	1986.0	1
534.68310546875	0.2	SCRAMBLED	0	0.782197963268118	0	0	1994.0	1
536.4130859375	0.2	FACES	1	0.402295169449644	0	0	1999.0	1
537.68310546875	0.2	FACES	1	0.513104905039654	0	0	2007.0	1
539.052734375	0.2	SCRAMBLED	0	0.487933140109817	0	0	2015.0	1
540.27294921875	0.2	FACES	1	0.51679918670925	0	0	2023.0	1
541.73291015625	0.2	SCRAMBLED	0	0.563582454105926	0	0	2031.0	1
542.97265625	0.2	FACES	1	0.417358143386082	0	0	2039.0	1
544.17236328125	0.2	SCRAMBLED	0	0.504293142261304	0	0	2047.0	1
545.50244140625	0.2	FACES	1	0.338083066551917	0	0	2055.0	1
546.7421875	0.2	FACES	1	0.668958676807961	0	0	2063.0	1
548.1923828125	0.2	SCRAMBLED	0	0.603680759009876	0	0	2071.0	1
549.76220703125	0.2	SCRAMBLED	0	0.53831651352084	0	0	2077.0	1
551.07177734375	0.2	SCRAMBLED	0	0.403358871437376	0	0	2085.0	1
552.412109375	0.2	FACES	1	0.518247137450089	0	0	2093.0	1
553.8916015625	0.2	FACES	1	0.403009033016133	0	0	2101.0	1
555.08154296875	0.2	FACES	1	0.368859188674833	0	0	2109.0	1
556.2314453125	0.2	SCRAMBLED	0	n/a	0	1	2117.0	0
558.1513671875	0.2	FACES	1	0.477137953454076	0	0	2119.0	1
559.46142578125	0.2	SCRAMBLED	0	0.884034147129569	0	0	2127.0	1
561.12109375	0.2	SCRAMBLED	0	0.648072809857695	0	0	2133.0	1
562.701171875	0.2	SCRAMBLED	0	0.504618833077984	0	0	2139.0	1
564.1708984375	0.2	SCRAMBLED	0	0.518756953755656	0	0	2147.0	1
565.5908203125	0.2	FACES	1	0.843554310078616	0	0	2155.0	1
567.19091796875	0.2	FACES	1	0.842318254562997	0	0	2161.0	1
568.87060546875	0.2	SCRAMBLED	0	0.744060142023955	0	0	2167.0	1
570.49072265625	0.2	SCRAMBLED	0	0.51400078117149	0	0	2173.0	1
599.91845703125	0.2	FACES	1	0.530838000362564	0	0	2177.0	1
601.22802734375	0.2	SCRAMBLED	0	0.553990120006347	0	0	2185.0	1
602.578125	0.2	SCRAMBLED	0	0.439804247442225	0	0	2193.0	1
603.88818359375	0.2	SCRAMBLED	0	0.389758336808882	0	0	2201.0	1
605.11767578125	0.2	SCRAMBLED	0	0.482349308382254	0	0	2209.0	1
606.28759765625	0.2	FACES	1	0.497337122898898	0	0	2217.0	1
607.66748046875	0.2	SCRAMBLED	0	0.503506835884764	0	0	2225.0	1
608.90771484375	0.2	FACES	1	0.536904482338286	0	0	2233.0	1
610.3076171875	0.2	SCRAMBLED	0	0.408803854439611	0	0	2241.0	1
611.52734375	0.2	SCRAMBLED	0	0.478559341834625	0	0	2249.0	1
612.9072265625	0.2	SCRAMBLED	0	0.448397776246566	0	0	2257.0	1
614.20703125	0.2	FACES	1	0.513368415777222	0	0	2265.0	1
615.39697265625	0.2	SCRAMBLED	0	0.488105191794602	0	0	2273.0	1
616.72705078125	0.2	FACES	1	0.554001891963708	0	0	2281.0	1
618.046875	0.2	SCRAMBLED	0	0.387805399284844	0	0	2289.0	1
619.0966796875	0.2	SCRAMBLED	0	0.58770862775782	0	0	2297.0	1
620.52685546875	0.2	SCRAMBLED	0	0.523501354378823	0	0	2305.0	1
621.79638671875	0.2	FACES	1	0.462294420878607	0	0	2313.0	1
622.99658203125	0.2	FACES	1	0.516095284030598	0	0	2321.0	1
624.31640625	0.2	FACES	1	0.613897610535787	0	0	2329.0	1
625.81640625	0.2	FACES	1	0.407672237317456	0	0	2336.0	1
627.1162109375	0.2	SCRAMBLED	0	0.713645328432904	0	0	2344.0	1
628.505859375	0.2	FACES	1	0.967504870270204	0	0	2352.0	1
630.3857421875	0.2	SCRAMBLED	0	0.558248248242307	0	0	2357.0	1
631.73583984375	0.2	SCRAMBLED	0	0.704803682991042	0	0	2365.0	1
633.32568359375	0.2	FACES	1	0.537807904598594	0	0	2371.0	1
634.53564453125	0.2	FACES	1	0.486732098626817	0	0	2379.0	1
635.82568359375	0.2	FACES	1	0.623537937997753	0	0	2387.0	1
637.1552734375	0.2	SCRAMBLED	0	0.787342006748077	0	0	2395.0	1
638.9150390625	0.2	FACES	1	0.613231438492221	0	0	2400.0	1
640.42529296875	0.2	FACES	1	0.573004849440622	0	0	2406.0	1
641.875	0.2	FACES	1	0.448756066332862	0	0	2414.0	1
643.2451171875	0.2	SCRAMBLED	0	0.52856057939789	0	0	2422.0	1
644.544921875	0.2	FACES	1	0.498330193138827	0	0	2430.0	1
645.98486328125	0.2	SCRAMBLED	0	0.884085460787901	0	0	2438.0	1
647.6044921875	0.2	FACES	1	0.557784010543401	0	0	2444.0	1
649.0146484375	0.2	SCRAMBLED	0	0.4085835075457	0	0	2452.0	1
650.08447265625	0.2	FACES	1	0.662663999963115	0	0	2460.0	1
651.5244140625	0.2	SCRAMBLED	0	0.537537451426033	0	0	2468.0	1
652.97412109375	0.2	SCRAMBLED	0	0.538320437506627	0	0	2476.0	1
654.22412109375	0.2	SCRAMBLED	0	0.70714479326125	0	0	2484.0	1
655.72412109375	0.2	FACES	1	0.503000943568622	0	0	2491.0	1
657.173828125	0.2	SCRAMBLED	0	0.663820972073154	0	0	2499.0	1
658.7939453125	0.2	FACES	1	0.473547506488103	0	0	2505.0	1
659.94384765625	0.2	FACES	1	0.706479828601005	0	0	2513.0	1
661.54345703125	0.2	SCRAMBLED	0	0.493276099485229	0	0	2519.0	1
662.86328125	0.2	FACES	1	0.698054729338764	0	0	2527.0	1
664.4931640625	0.2	FACES	1	0.628907459740731	0	0	2533.0	1
665.8330078125	0.2	FACES	1	0.621739243299089	0	0	2541.0	1
667.31298828125	0.2	SCRAMBLED	0	0.538345490644133	0	0	2549.0	1
668.5830078125	0.2	FACES	1	0.666300931072328	0	0	2557.0	1
669.9130859375	0.2	FACES	1	0.652081614076451	0	0	2565.0	1
671.22265625	0.2	SCRAMBLED	0	0.538016479531507	0	0	2573.0	1
672.47265625	0.2	SCRAMBLED	0	0.446824257960543	0	0	2581.0	1
673.58251953125	0.2	FACES	1	0.542603920723195	0	0	2589.0	1
674.80224609375	0.2	SCRAMBLED	0	0.592890703715966	0	0	2597.0	1
676.3525390625	0.2	SCRAMBLED	0	0.507293783986825	0	0	2603.0	1
677.72216796875	0.2	FACES	1	0.423147833447729	0	0	2611.0	1
679.0419921875	0.2	FACES	1	0.398045191031997	0	0	2619.0	1
680.31201171875	0.2	SCRAMBLED	0	0.464813921575114	0	0	2627.0	1
681.44189453125	0.2	SCRAMBLED	0	0.69731098311604	0	0	2635.0	1
682.8818359375	0.2	FACES	1	0.446510037254484	0	0	2643.0	1
683.98193359375	0.2	SCRAMBLED	0	0.527367687729566	0	0	2651.0	1
685.46142578125	0.2	FACES	1	0.503115342846286	0	0	2659.0	1
686.78173828125	0.2	FACES	1	0.614020461471227	0	0	2667.0	1
688.25146484375	0.2	FACES	1	0.523880471770099	0	0	2675.0	1
689.55126953125	0.2	FACES	1	0.608584835666989	0	0	2683.0	1
690.87109375	0.2	FACES	1	0.51198505987486	0	0	2691.0	1
692.17138671875	0.2	SCRAMBLED	0	0.932295247934235	0	0	2699.0	1
693.8310546875	0.2	SCRAMBLED	0	0.682052413580095	0	0	2705.0	1
695.2509765625	0.2	SCRAMBLED	0	0.792920707113808	0	0	2713.0	1
696.74072265625	0.2	SCRAMBLED	0	0.582392532593076	0	0	2721.0	1
698.04052734375	0.2	SCRAMBLED	0	0.477536992621026	0	0	2729.0	1
699.2705078125	0.2	FACES	1	0.602196285009995	0	0	2737.0	1
700.810546875	0.2	SCRAMBLED	0	0.563284533036494	0	0	2743.0	1
702.23046875	0.2	FACES	1	0.715389992870769	0	0	2751.0	1
703.63037109375	0.2	SCRAMBLED	0	0.5518412850397	0	0	2759.0	1
704.84033203125	0.2	FACES	1	0.551590753639175	0	0	2767.0	1
706.35009765625	0.2	SCRAMBLED	0	0.539556191171869	0	0	2773.0	1
707.7099609375	0.2	FACES	1	0.428285840025637	0	0	2781.0	1
708.8798828125	0.2	SCRAMBLED	0	0.423101952997968	0	0	2789.0	1
710.14990234375	0.2	SCRAMBLED	0	0.685119461220893	0	0	2797.0	1
711.66943359375	0.2	FACES	1	0.557775257035246	0	0	2803.0	1
712.94970703125	0.2	FACES	1	0.567540850202931	0	0	2811.0	1
714.44921875	0.2	FACES	1	0.458479703032936	0	0	2818.0	1
715.71923828125	0.2	SCRAMBLED	0	0.519254998100223	0	0	2826.0	1
716.96923828125	0.2	SCRAMBLED	0	0.542097726563952	0	0	2834.0	1
718.369140625	0.2	SCRAMBLED	0	0.468978175998927	0	0	2842.0	1
719.80908203125	0.2	FACES	1	0.543755459624663	0	0	2850.0	1
721.26904296875	0.2	FACES	1	0.508530745035387	0	0	2858.0	1
722.73876953125	0.2	SCRAMBLED	0	0.548479636629054	0	0	2866.0	1
724.10888671875	0.2	SCRAMBLED	0	0.458225549493363	0	0	2874.0	1
725.228515625	0.2	FACES	1	0.581805142111989	0	0	2882.0	1
726.45849609375	0.2	FACES	1	0.632929545139632	0	0	2890.0	1
727.82861328125	0.2	SCRAMBLED	0	0.582809380619437	0	0	2898.0	1
729.328125	0.2	SCRAMBLED	0	0.567654042097274	0	0	2905.0	1
730.71826171875	0.2	SCRAMBLED	0	0.478302471688949	0	0	2913.0	1
731.96826171875	0.2	FACES	1	0.558100646008825	0	0	2921.0	1
733.17822265625	0.2	FACES	1	0.562786488691927	0	0	2929.0	1
734.69775390625	0.2	SCRAMBLED	0	0.479921568581631	0	0	2935.0	1
736.11767578125	0.2	FACES	1	0.548715679458837	0	0	2943.0	1
737.31787109375	0.2	FACES	1	0.682397422486247	0	0	2951.0	1
738.8173828125	0.2	FACES	1	0.492191268345778	0	0	2958.0	1
740.267578125	0.2	SCRAMBLED	0	0.508267234297819	0	0	2966.0	1
741.63720703125	0.2	FACES	1	0.582966943740757	0	0	2974.0	1
742.87744140625	0.2	SCRAMBLED	0	0.667874147515249	0	0	2982.0	1
744.30712890625	0.2	SCRAMBLED	0	0.606680797041918	0	0	2990.0	1
745.72705078125	0.2	SCRAMBLED	0	0.498498320834187	0	0	2998.0	1
747.15673828125	0.2	FACES	1	0.49811256285102	0	0	3006.0	1
748.306640625	0.2	FACES	1	0.552183577332471	0	0	3014.0	1
749.77685546875	0.2	SCRAMBLED	0	0.550395749054587	0	0	3022.0	1
751.11669921875	0.2	FACES	1	0.696738986727723	0	0	3030.0	1
752.7265625	0.2	FACES	1	0.587516654300998	0	0	3036.0	1
753.986328125	0.2	FACES	1	0.432445264927082	0	0	3044.0	1
755.29638671875	0.2	SCRAMBLED	0	0.484231010475924	0	0	3052.0	1
756.56640625	0.2	SCRAMBLED	0	0.49379949881768	0	0	3060.0	1
757.7861328125	0.2	SCRAMBLED	0	0.496982153108547	0	0	3068.0	1
758.93603515625	0.2	FACES	1	0.481676193903695	0	0	3076.0	1
760.06591796875	0.2	FACES	1	0.362682835097075	0	0	3084.0	1
761.15576171875	0.2	SCRAMBLED	0	0.547540294806822	0	0	3092.0	1
762.65576171875	0.2	FACES	1	0.503239099321945	0	0	3099.0	1
764.07568359375	0.2	SCRAMBLED	0	0.518064823038003	0	0	3107.0	1
765.49560546875	0.2	FACES	1	0.364088527534477	0	0	3115.0	1
766.67529296875	0.2	SCRAMBLED	0	0.577715745264868	0	0	3123.0	1
768.12548828125	0.2	FACES	1	0.288588324994635	0	0	3131.0	1
769.09521484375	0.2	SCRAMBLED	0	0.612470788946666	0	0	3141.0	1
770.4951171875	0.2	SCRAMBLED	0	0.554268421150482	0	0	3149.0	1
771.9150390625	0.2	SCRAMBLED	0	0.418066271893622	0	0	3157.0	1
773.294921875	0.2	SCRAMBLED	0	0.448045523065957	0	0	3165.0	1
774.49462890625	0.2	SCRAMBLED	0	0.457887483029481	0	0	3173.0	1
775.71484375	0.2	FACES	1	0.481629106074251	0	0	3181.0	1
776.86474609375	0.2	FACES	1	0.372481933063682	0	0	3189.0	1
778.0546875	0.2	SCRAMBLED	0	0.528264771241084	0	0	3197.0	1
779.234375	0.2	FACES	1	0.41207887332348	0	0	3205.0	1
780.30419921875	0.2	SCRAMBLED	0	0.317988033653819	0	0	3213.0	1
781.484375	0.2	FACES	1	0.493892165250145	0	0	3221.0	1
782.75439453125	0.2	SCRAMBLED	0	0.473591274021601	0	0	3229.0	1
784.13427734375	0.2	FACES	1	0.543469310505316	0	0	3237.0	1
785.3740234375	0.2	FACES	1	0.838109628919483	0	0	3245.0	1
787.173828125	0.2	SCRAMBLED	0	0.617194965947419	0	0	3250.0	1
788.5537109375	0.2	FACES	1	0.388950297590782	0	0	3258.0	1
789.7138671875	0.2	SCRAMBLED	0	0.507864271145081	0	0	3266.0	1
790.9736328125	0.2	SCRAMBLED	0	0.617705687785929	0	0	3274.0	1
792.263671875	0.2	FACES	1	0.512456541855499	0	0	3282.0	1
793.4833984375	0.2	FACES	1	0.402391458028433	0	0	3290.0	1
794.84326171875	0.2	SCRAMBLED	0	0.728047865381086	0	0	3298.0	1
796.283203125	0.2	FACES	1	0.591971585516148	0	0	3306.0	1
797.65283203125	0.2	FACES	1	0.567745501150057	0	0	3314.0	1
799.1328125	0.2	SCRAMBLED	0	0.438695570544951	0	0	3322.0	1
800.5029296875	0.2	FACES	1	0.54844371706713	0	0	3330.0	1
830.37060546875	0.2	SCRAMBLED	0	0.457263569292991	0	0	3334.0	1
831.7705078125	0.2	SCRAMBLED	0	0.423447263743583	0	0	3342.0	1
833.14013671875	0.2	SCRAMBLED	0	0.554030265397159	0	0	3350.0	1
834.490234375	0.2	SCRAMBLED	0	0.447002648386842	0	0	3358.0	1
835.6298828125	0.2	SCRAMBLED	0	0.452954127398698	0	0	3366.0	1
836.77978515625	0.2	SCRAMBLED	0	0.361875399565179	0	0	3374.0	1
838.080078125	0.2	SCRAMBLED	0	0.853515800681635	0	0	3382.0	1
839.64990234375	0.2	SCRAMBLED	0	0.398286968928005	0	0	3388.0	1
840.89990234375	0.2	SCRAMBLED	0	0.328740358312643	0	0	3396.0	1
841.94970703125	0.2	SCRAMBLED	0	0.287055555789266	0	0	3404.0	1
842.9794921875	0.2	SCRAMBLED	0	0.47800002294025	0	0	3412.0	1
844.1494140625	0.2	FACES	1	0.557777369951509	0	0	3420.0	1
845.66943359375	0.2	FACES	1	0.293556090960919	0	0	3426.0	1
846.869140625	0.2	SCRAMBLED	0	n/a	0	1	3434.0	0
848.18896484375	0.2	FACES	1	0.473376058493159	0	0	3442.0	1
849.458984375	0.2	FACES	1	0.688163568629534	0	0	3450.0	1
850.93896484375	0.2	FACES	1	0.414949419820914	0	0	3458.0	1
852.07861328125	0.2	FACES	1	0.601758005988813	0	0	3466.0	1
853.4384765625	0.2	FACES	1	0.478637821546727	0	0	3474.0	1
854.728515625	0.2	FACES	1	0.333454574432835	0	0	3482.0	1
855.87841796875	0.2	FACES	1	0.703361165458773	0	0	3490.0	1
857.30859375	0.2	SCRAMBLED	0	0.573193502605136	0	0	3498.0	1
858.54833984375	0.2	SCRAMBLED	0	0.55601368927455	0	0	3506.0	1
859.91845703125	0.2	FACES	1	0.553872400432738	0	0	3514.0	1
861.29833984375	0.2	SCRAMBLED	0	0.703648823800904	0	0	3522.0	1
862.7177734375	0.2	SCRAMBLED	0	0.578190547537815	0	0	3530.0	1
863.9677734375	0.2	SCRAMBLED	0	n/a	0	1	3538.0	0
865.767578125	0.2	FACES	1	0.482904703287204	0	0	3540.0	1
866.98779296875	0.2	FACES	1	0.456975307264656	0	0	3548.0	1
868.16748046875	0.2	SCRAMBLED	0	0.612700493031298	0	0	3556.0	1
869.46728515625	0.2	SCRAMBLED	0	0.541502789954393	0	0	3564.0	1
870.857421875	0.2	SCRAMBLED	0	0.493443925337488	0	0	3572.0	1
872.13720703125	0.2	SCRAMBLED	0	0.363356553265476	0	0	3580.0	1
873.25732421875	0.2	SCRAMBLED	0	0.428181401635811	0	0	3588.0	1
874.626953125	0.2	FACES	1	0.44895105823889	0	0	3596.0	1
876.02685546875	0.2	SCRAMBLED	0	0.589854142432159	0	0	3604.0	1
877.27685546875	0.2	SCRAMBLED	0	0.5575352902124	0	0	3612.0	1
878.60693359375	0.2	FACES	1	0.468464133864472	0	0	3620.0	1
880.046875	0.2	FACES	1	0.313214052217518	0	0	3628.0	1
881.04638671875	0.2	FACES	1	0.417154397975537	0	0	3637.0	1
882.36669921875	0.2	SCRAMBLED	0	0.599966857411346	0	0	3645.0	1
883.81640625	0.2	FACES	1	1.0336641756403	0	0	3653.0	1
885.5361328125	0.2	FACES	1	0.567607859804411	0	0	3657.0	1
887.01611328125	0.2	SCRAMBLED	0	0.598038973024813	0	0	3665.0	1
888.4658203125	0.2	SCRAMBLED	0	0.449235698128177	0	0	3673.0	1
889.7861328125	0.2	FACES	1	0.552726294747117	0	0	3681.0	1
891.11572265625	0.2	FACES	1	0.438865509309835	0	0	3689.0	1
892.37548828125	0.2	SCRAMBLED	0	0.449650433238276	0	0	3697.0	1
893.685546875	0.2	FACES	1	0.558265151565138	0	0	3705.0	1
895.2255859375	0.2	SCRAMBLED	0	0.848110661227111	0	0	3711.0	1
897.025390625	0.2	FACES	1	0.481159737006237	0	0	3716.0	1
898.1953125	0.2	FACES	1	0.876908490841743	0	0	3724.0	1
899.794921875	0.2	FACES	1	0.546719879937882	0	0	3730.0	1
901.31494140625	0.2	SCRAMBLED	0	0.649623086075735	0	0	3736.0	1
902.875	0.2	FACES	1	1.10840161571832	0	0	3742.0	1
904.86474609375	0.2	SCRAMBLED	0	0.586850784104172	0	0	3746.0	1
906.39453125	0.2	FACES	1	0.593854193139123	0	0	3752.0	1
907.9345703125	0.2	SCRAMBLED	0	0.73437997101064	0	0	3758.0	1
909.3642578125	0.2	SCRAMBLED	0	n/a	0	1	3766.0	0
911.35400390625	0.2	SCRAMBLED	0	0.544216075180884	0	0	3768.0	1
912.63427734375	0.2	FACES	1	0.466992337362171	0	0	3776.0	1
914.02392578125	0.2	SCRAMBLED	0	0.418929850602581	0	0	3784.0	1
915.2939453125	0.2	SCRAMBLED	0	0.568670354408823	0	0	3792.0	1
916.8037109375	0.2	SCRAMBLED	0	0.4635144786007	0	0	3798.0	1
918.173828125	0.2	FACES	1	0.482385227944178	0	0	3806.0	1
919.3935546875	0.2	SCRAMBLED	0	0.513115167774231	0	0	3814.0	1
920.7734375	0.2	FACES	1	0.529007611930865	0	0	3822.0	1
922.2734375	0.2	FACES	1	0.532864286233234	0	0	3830.0	1
923.7431640625	0.2	SCRAMBLED	0	0.52365137137167	0	0	3838.0	1
925.09326171875	0.2	FACES	1	0.426462394028931	0	0	3846.0	1
926.3330078125	0.2	SCRAMBLED	0	0.488394057516416	0	0	3854.0	1
927.56298828125	0.2	SCRAMBLED	0	0.512153187573858	0	0	3862.0	1
928.7529296875	0.2	FACES	1	0.476726538639923	0	0	3870.0	1
930.06298828125	0.2	SCRAMBLED	0	0.603860960505699	0	0	3878.0	1
931.40283203125	0.2	SCRAMBLED	0	0.542657347301429	0	0	3886.0	1
932.6328125	0.2	FACES	1	0.617251410974859	0	0	3894.0	1
934.03271484375	0.2	SCRAMBLED	0	0.563388367740117	0	0	3902.0	1
935.29248046875	0.2	SCRAMBLED	0	n/a	0	1	3910.0	0
937.2421875	0.2	SCRAMBLED	0	0.708554409684439	0	0	3912.0	1
938.7119140625	0.2	FACES	1	0.471684216947324	0	0	3920.0	1
939.86181640625	0.2	FACES	1	0.3976204950377	0	0	3928.0	1
941.19189453125	0.2	FACES	1	0.417424247454619	0	0	3936.0	1
942.39208984375	0.2	SCRAMBLED	0	0.684185854453972	0	0	3944.0	1
943.94189453125	0.2	SCRAMBLED	0	0.439088572809851	0	0	3950.0	1
945.11181640625	0.2	FACES	1	0.54671354119273	0	0	3958.0	1
946.34130859375	0.2	SCRAMBLED	0	0.572796274507709	0	0	3966.0	1
947.66162109375	0.2	SCRAMBLED	0	0.432618222144811	0	0	3974.0	1
948.9013671875	0.2	SCRAMBLED	0	0.618400233266584	0	0	3982.0	1
950.28125	0.2	FACES	1	0.472211238415184	0	0	3990.0	1
951.53125	0.2	FACES	1	0.518146321202948	0	0	3998.0	1
952.98095703125	0.2	SCRAMBLED	0	0.953894978443714	0	0	4006.0	1
954.82080078125	0.2	FACES	1	0.766662903664837	0	0	4011.0	1
956.5009765625	0.2	FACES	1	0.50238789625655	0	0	4017.0	1
957.90087890625	0.2	SCRAMBLED	0	0.539216313638462	0	0	4025.0	1
959.3603515625	0.2	FACES	1	0.562708310819289	0	0	4033.0	1
960.67041015625	0.2	FACES	1	0.5209154477634	0	0	4041.0	1
962.16015625	0.2	FACES	1	0.533430547562602	0	0	4049.0	1
963.63037109375	0.2	SCRAMBLED	0	0.644450669158687	0	0	4057.0	1
965.22998046875	0.2	SCRAMBLED	0	0.518370893925749	0	0	4063.0	1
966.68017578125	0.2	SCRAMBLED	0	0.43416789467301	0	0	4071.0	1
967.94970703125	0.2	FACES	1	0.668934227356658	0	0	4079.0	1
969.3798828125	0.2	SCRAMBLED	0	0.546586464424763	0	0	4087.0	1
970.81982421875	0.2	SCRAMBLED	0	0.683621706040867	0	0	4095.0	1
972.29931640625	0.2	FACES	1	0.593412291975255	0	0	4103.0	1
973.849609375	0.2	FACES	1	0.883070959545876	0	0	4109.0	1
975.3994140625	0.2	SCRAMBLED	0	0.92792211673077	0	0	4115.0	1
977.19921875	0.2	FACES	1	0.587694139197993	0	0	4120.0	1
978.5390625	0.2	FACES	1	0.607611083509255	0	0	4128.0	1
979.8388671875	0.2	FACES	1	0.572306983671297	0	0	4136.0	1
981.26904296875	0.2	SCRAMBLED	0	0.5491907835858	0	0	4144.0	1
982.68896484375	0.2	FACES	1	0.593191039548401	0	0	4152.0	1
984.0087890625	0.2	FACES	1	0.746892656046839	0	0	4160.0	1
985.53857421875	0.2	SCRAMBLED	0	0.553799655775947	0	0	4166.0	1
986.8583984375	0.2	FACES	1	0.531631551017199	0	0	4174.0	1
988.1484375	0.2	FACES	1	0.591436112379597	0	0	4182.0	1
989.6484375	0.2	FACES	1	0.463057183340425	0	0	4189.0	1
990.8681640625	0.2	FACES	1	0.541972159018769	0	0	4197.0	1
992.1982421875	0.2	SCRAMBLED	0	0.513886683740566	0	0	4205.0	1
993.41796875	0.2	FACES	1	0.571738609425665	0	0	4213.0	1
994.767578125	0.2	SCRAMBLED	0	0.642573494744283	0	0	4221.0	1
996.087890625	0.2	SCRAMBLED	0	0.697403347701766	0	0	4229.0	1
997.73779296875	0.2	FACES	1	0.513219304320955	0	0	4235.0	1
998.95751953125	0.2	FACES	1	0.572138252282457	0	0	4243.0	1
1000.4072265625	0.2	SCRAMBLED	0	0.633928652281611	0	0	4251.0	1
1001.77734375	0.2	FACES	1	0.756620216736337	0	0	4259.0	1
1003.18701171875	0.2	FACES	1	0.572457000660506	0	0	4267.0	1
1004.626953125	0.2	SCRAMBLED	0	0.538174646342668	0	0	4275.0	1
1006.02685546875	0.2	SCRAMBLED	0	0.568154803051584	0	0	4283.0	1
1007.556640625	0.2	FACES	1	0.653851331648184	0	0	4289.0	1
1009.056640625	0.2	FACES	1	0.463493047602242	0	0	4296.0	1
1010.4267578125	0.2	FACES	1	0.514449926620728	0	0	4304.0	1
1011.7763671875	0.2	SCRAMBLED	0	0.693368282965821	0	0	4312.0	1
1013.31640625	0.2	FACES	1	0.568189213387086	0	0	4318.0	1
1014.68603515625	0.2	FACES	1	0.883924577370635	0	0	4326.0	1
1016.34619140625	0.2	FACES	1	0.438839550635748	0	0	4332.0	1
1017.51611328125	0.2	FACES	1	0.4576620047701	0	0	4340.0	1
1018.73583984375	0.2	SCRAMBLED	0	0.547436158260098	0	0	4348.0	1
1019.9560546875	0.2	SCRAMBLED	0	0.47734803761341	0	0	4356.0	1
1021.10595703125	0.2	SCRAMBLED	0	0.463218368600792	0	0	4364.0	1
1022.35546875	0.2	FACES	1	0.498097168754612	0	0	4372.0	1
1023.685546875	0.2	FACES	1	0.39881791438529	0	0	4380.0	1
1024.83544921875	0.2	FACES	1	0.522663432500849	0	0	4388.0	1
1026.025390625	0.2	SCRAMBLED	0	0.537592085380311	0	0	4396.0	1
1027.42529296875	0.2	FACES	1	0.463360235775326	0	0	4404.0	1
1028.6650390625	0.2	FACES	1	0.537173426288064	0	0	4412.0	1
1029.9150390625	0.2	SCRAMBLED	0	0.608432102064398	0	0	4420.0	1
1031.27490234375	0.2	SCRAMBLED	0	0.597859978905035	0	0	4428.0	1
1032.6650390625	0.2	FACES	1	0.398654918055399	0	0	4436.0	1
1033.8349609375	0.2	SCRAMBLED	0	0.54849955840109	0	0	4444.0	1
1035.24462890625	0.2	FACES	1	0.978326619293512	0	0	4452.0	1
