onset	duration	trial_type	trial_type_id	response_time	bad_epoch	outliers	direction	name_direction	event_num	response_accuracy
50.49072265625	0.2	COHERENT	1	0.610342628274793	0	0	0	RIGHT	1.0	1
51.88037109375	0.2	COHERENT	1	0.804604598501101	0	0	0	RIGHT	5.0	1
53.51025390625	0.2	RANDOM	0	0.704293667062302	0	0	0	NONE	8.0	1
54.81005859375	0.2	COHERENT	1	1.06805568090522	0	0	0	RIGHT	12.0	1
56.52001953125	0.2	COHERENT	1	0.902786007270606	0	0	0	RIGHT	14.0	1
58.06982421875	0.2	RANDOM	0	0.817785302460379	0	0	0	NONE	17.0	1
59.56982421875	0.2	COHERENT	1	0.803512821960339	0	0	180	LEFT	21.0	1
61.169921875	0.2	COHERENT	1	0.859290619927833	0	0	0	RIGHT	24.0	1
62.8095703125	0.2	RANDOM	0	0.804152735222033	0	0	0	NONE	27.0	1
64.50927734375	0.2	COHERENT	1	0.759823951409999	0	0	180	LEFT	30.0	1
66.08935546875	0.2	COHERENT	1	0.774813617716518	0	0	0	RIGHT	33.0	1
67.67919921875	0.2	COHERENT	1	0.839484097099103	0	0	180	LEFT	36.0	1
69.4091796875	0.2	RANDOM	0	0.829230694465878	0	0	0	NONE	39.0	1
71.05908203125	0.2	COHERENT	1	0.855006521380346	0	0	180	LEFT	42.0	1
72.7587890625	0.2	RANDOM	0	0.939794726692526	0	0	0	NONE	45.0	1
74.61865234375	0.2	COHERENT	1	0.839587932081031	0	0	180	LEFT	48.0	1
76.24853515625	0.2	COHERENT	1	0.88931794603559	0	0	180	LEFT	51.0	1
78.0185546875	0.2	COHERENT	1	0.903822244169987	0	0	0	RIGHT	54.0	1
79.73828125	0.2	COHERENT	1	0.984840092618469	0	0	0	RIGHT	57.0	1
81.498046875	0.2	COHERENT	1	0.92468854787694	0	0	0	RIGHT	60.0	1
83.25830078125	0.2	RANDOM	0	0.73440007678937	0	0	0	NONE	63.0	1
84.587890625	0.2	RANDOM	0	1.0182619774705	0	0	0	NONE	67.0	1
86.3076171875	0.2	RANDOM	0	0.898017446088033	0	0	0	NONE	69.0	1
88.02783203125	0.2	COHERENT	1	0.684554757709975	0	0	180	LEFT	72.0	1
89.5078125	0.2	COHERENT	1	0.789364701961858	0	0	180	LEFT	76.0	1
91.17724609375	0.2	RANDOM	0	0.94454940296373	0	0	0	NONE	79.0	1
92.77734375	0.2	COHERENT	1	1.09773075287285	0	0	180	LEFT	82.0	1
94.4970703125	0.2	COHERENT	1	0.993788615520316	0	0	0	RIGHT	84.0	1
96.197265625	0.2	COHERENT	1	0.907692512018457	0	0	0	RIGHT	86.0	1
97.77685546875	0.2	COHERENT	1	0.853643385394662	0	0	180	LEFT	89.0	1
99.51708984375	0.2	RANDOM	0	0.934082897141252	0	0	0	NONE	92.0	1
101.046875	0.2	RANDOM	0	n/a	0	1	0	NONE	95.0	0
103.11669921875	0.2	RANDOM	0	n/a	0	1	0	NONE	96.0	0
105.06640625	0.2	RANDOM	0	0.994359707921831	0	0	0	NONE	98.0	1
106.83642578125	0.2	RANDOM	0	1.18435297374026	0	0	0	NONE	100.0	1
108.72607421875	0.2	COHERENT	1	1.00811120243588	0	0	180	LEFT	102.0	1
110.39599609375	0.2	RANDOM	0	1.09761574959339	0	0	0	NONE	104.0	1
112.095703125	0.2	RANDOM	0	n/a	0	1	0	NONE	106.0	0
114.17578125	0.2	RANDOM	0	0.889531351071128	0	0	0	NONE	107.0	1
115.775390625	0.2	RANDOM	0	0.938300891441486	0	0	0	NONE	110.0	1
117.3955078125	0.2	COHERENT	1	0.802874116081966	0	0	180	LEFT	113.0	1
118.84521484375	0.2	COHERENT	1	0.838984240324862	0	0	0	RIGHT	117.0	1
120.33544921875	0.2	RANDOM	0	0.877737628922205	0	0	0	NONE	121.0	1
121.96533203125	0.2	COHERENT	1	0.819140892298492	0	0	0	RIGHT	124.0	1
123.4150390625	0.2	COHERENT	1	1.16291527578596	0	0	0	RIGHT	128.0	1
125.36474609375	0.2	COHERENT	1	0.909813583004052	0	0	180	LEFT	130.0	1
127.10498046875	0.2	RANDOM	0	0.834821181974348	0	0	0	NONE	133.0	1
128.82470703125	0.2	COHERENT	1	0.834301705217968	0	0	0	RIGHT	136.0	1
130.2744140625	0.2	RANDOM	0	0.923945101479148	0	0	0	NONE	140.0	1
131.904296875	0.2	COHERENT	1	0.837916611454148	0	0	180	LEFT	143.0	1
133.34423828125	0.2	RANDOM	0	1.00865693978358	0	0	0	NONE	147.0	1
135.21435546875	0.2	RANDOM	0	0.8097851793068	0	0	0	NONE	149.0	1
136.744140625	0.2	RANDOM	0	1.05434946327296	0	0	0	NONE	152.0	1
138.59375	0.2	RANDOM	0	0.93932897850209	0	0	0	NONE	154.0	1
140.23388671875	0.2	RANDOM	0	0.977841192242977	0	0	0	NONE	157.0	1
141.8134765625	0.2	RANDOM	0	0.929052635582593	0	0	0	NONE	160.0	1
143.61376953125	0.2	COHERENT	1	0.814498502693368	0	0	180	LEFT	163.0	1
145.05322265625	0.2	RANDOM	0	0.813523238661219	0	0	0	NONE	167.0	1
146.55322265625	0.2	COHERENT	1	0.963318481509759	0	0	0	RIGHT	171.0	1
148.123046875	0.2	COHERENT	1	0.958063646618029	0	0	180	LEFT	174.0	1
149.97314453125	0.2	COHERENT	1	0.780346150816058	0	0	180	LEFT	177.0	1
151.57275390625	0.2	COHERENT	1	0.783735578181222	0	0	180	LEFT	180.0	1
153.142578125	0.2	RANDOM	0	n/a	0	1	0	NONE	183.0	0
154.9228515625	0.2	COHERENT	1	n/a	0	1	180	LEFT	184.0	0
156.97265625	0.2	RANDOM	0	1.14963767930021	0	0	0	NONE	185.0	1
159.01220703125	0.2	RANDOM	0	0.884610961412363	0	0	0	NONE	187.0	1
160.76220703125	0.2	COHERENT	1	0.814670856689645	0	0	180	LEFT	190.0	1
162.48193359375	0.2	COHERENT	1	1.11919893726099	0	0	180	LEFT	193.0	1
164.33203125	0.2	RANDOM	0	1.04376946339971	0	0	0	NONE	195.0	1
166.001953125	0.2	COHERENT	1	n/a	0	1	180	LEFT	197.0	0
167.9716796875	0.2	RANDOM	0	1.18507680015637	0	0	0	NONE	198.0	1
169.9013671875	0.2	COHERENT	1	1.05926381601421	0	0	180	LEFT	200.0	1
171.7412109375	0.2	COHERENT	1	0.90412559927745	0	0	180	LEFT	202.0	1
173.25146484375	0.2	COHERENT	1	1.10756006204747	0	0	0	RIGHT	205.0	1
175.06103515625	0.2	RANDOM	0	0.958517622818817	0	0	0	NONE	207.0	1
176.62109375	0.2	RANDOM	0	n/a	0	1	0	NONE	210.0	0
178.541015625	0.2	COHERENT	1	0.954251031331751	0	0	0	RIGHT	211.0	1
180.33056640625	0.2	RANDOM	0	0.945040506207533	0	0	0	NONE	214.0	1
182.1005859375	0.2	RANDOM	0	0.974547450021419	0	0	0	NONE	217.0	1
183.80029296875	0.2	COHERENT	1	0.943546369111118	0	0	180	LEFT	220.0	1
185.42041015625	0.2	RANDOM	0	n/a	0	1	0	NONE	223.0	0
187.43017578125	0.2	COHERENT	1	0.804059464845523	0	0	180	LEFT	224.0	1
189.1201171875	0.2	COHERENT	1	0.775013741533712	0	0	180	LEFT	227.0	1
190.77001953125	0.2	RANDOM	0	0.874758108259812	0	0	0	NONE	230.0	1
192.4697265625	0.2	COHERENT	1	0.894164685300439	0	0	0	RIGHT	233.0	1
194.009765625	0.2	RANDOM	0	0.928252442159646	0	0	0	NONE	236.0	1
195.70947265625	0.2	COHERENT	1	0.834055700827321	0	0	180	LEFT	239.0	1
197.37939453125	0.2	RANDOM	0	n/a	0	1	0	NONE	242.0	0
199.28955078125	0.2	COHERENT	1	1.19414032633767	0	0	0	RIGHT	243.0	1
201.359375	0.2	COHERENT	1	n/a	0	1	180	LEFT	245.0	0
203.3291015625	0.2	RANDOM	0	1.18477012474386	0	0	0	NONE	246.0	1
205.1689453125	0.2	COHERENT	1	1.117582250738	0	0	0	RIGHT	248.0	1
207.12890625	0.2	RANDOM	0	0.879294549961287	0	0	0	NONE	250.0	1
208.74853515625	0.2	RANDOM	0	1.00455364691697	0	0	0	NONE	253.0	1
210.36865234375	0.2	RANDOM	0	1.04288233836405	0	0	0	NONE	255.0	1
212.03857421875	0.2	COHERENT	1	0.982989173693568	0	0	0	RIGHT	257.0	1
213.818359375	0.2	RANDOM	0	0.979713844070375	0	0	0	NONE	260.0	1
215.43798828125	0.2	COHERENT	1	n/a	0	1	180	LEFT	263.0	0
217.30810546875	0.2	COHERENT	1	n/a	0	1	0	RIGHT	264.0	0
218.177734375	0.2	RANDOM	0	n/a	0	1	0	NONE	267.0	0
220.27783203125	0.2	COHERENT	1	1.17972809119601	0	0	0	RIGHT	268.0	1
222.3076171875	0.2	RANDOM	0	0.918318090619778	0	0	0	NONE	270.0	1
n/a	0.2	COHERENT	1	0.839049740880455	1	0	180	LEFT	n/a	1
225.71728515625	0.2	COHERENT	1	1.17010041506819	0	0	0	RIGHT	273.0	1
n/a	0.2	RANDOM	0	0.924990393754797	1	0	0	NONE	n/a	1
229.13720703125	0.2	COHERENT	1	1.03774039383052	0	0	0	RIGHT	275.0	1
n/a	0.2	RANDOM	0	0.884295230624048	1	0	0	NONE	n/a	1
232.5869140625	0.2	COHERENT	1	0.938289421298123	0	0	180	LEFT	277.0	1
234.216796875	0.2	COHERENT	1	1.12803306057504	0	0	0	RIGHT	280.0	1
236.25634765625	0.2	RANDOM	0	0.88953829352613	0	0	0	NONE	282.0	1
237.9365234375	0.2	RANDOM	0	0.929732694346058	0	0	0	NONE	285.0	1
239.65625	0.2	RANDOM	0	0.884448266484014	0	0	0	NONE	288.0	1
241.14599609375	0.2	COHERENT	1	1.17825629069466	0	0	180	LEFT	292.0	1
n/a	0.2	RANDOM	0	n/a	1	1	0	NONE	n/a	0
245.1259765625	0.2	RANDOM	0	1.10834546502201	0	0	0	NONE	293.0	1
247.0458984375	0.2	RANDOM	0	1.06929294715974	0	0	0	NONE	295.0	1
248.935546875	0.2	COHERENT	1	0.855973333727434	0	0	180	LEFT	297.0	1
250.4453125	0.2	COHERENT	1	0.896994188561166	0	0	0	RIGHT	300.0	1
252.01513671875	0.2	COHERENT	1	0.823917301473557	0	0	0	RIGHT	303.0	1
253.6650390625	0.2	RANDOM	0	0.744628728060889	0	0	0	NONE	306.0	1
255.2353515625	0.2	COHERENT	1	0.794321011279862	0	0	0	RIGHT	309.0	1
256.85498046875	0.2	COHERENT	1	0.844227303227399	0	0	0	RIGHT	312.0	1
258.40478515625	0.2	RANDOM	0	0.828014255577273	0	0	0	NONE	315.0	1
260.0546875	0.2	RANDOM	0	0.764721400782037	0	0	0	NONE	318.0	1
261.62451171875	0.2	RANDOM	0	0.919753669615602	0	0	0	NONE	321.0	1
263.37451171875	0.2	RANDOM	0	0.754043300998546	0	0	0	NONE	324.0	1
264.74462890625	0.2	COHERENT	1	0.803282513555132	0	0	0	RIGHT	328.0	1
266.16455078125	0.2	RANDOM	0	0.888005520157094	0	0	0	NONE	332.0	1
267.64404296875	0.2	COHERENT	1	0.81800987579345	0	0	0	RIGHT	336.0	1
269.26416015625	0.2	RANDOM	0	0.859591560268655	0	0	0	NONE	339.0	1
270.84375	0.2	COHERENT	1	0.77446921156934	0	0	180	LEFT	342.0	1
272.4638671875	0.2	RANDOM	0	0.699285440252879	0	0	0	NONE	345.0	1
274.00390625	0.2	COHERENT	1	0.743993946179216	0	0	0	RIGHT	348.0	1
275.53369140625	0.2	COHERENT	1	0.669954170740311	0	0	180	LEFT	351.0	1
277.0234375	0.2	RANDOM	0	0.719692032687817	0	0	0	NONE	355.0	1
278.50341796875	0.2	RANDOM	0	0.704456663836481	0	0	0	NONE	359.0	1
279.89306640625	0.2	COHERENT	1	0.843225778603937	0	0	180	LEFT	363.0	1
281.4033203125	0.2	RANDOM	0	0.893065966303766	0	0	0	NONE	366.0	1
282.90283203125	0.2	RANDOM	0	0.997945636953318	0	0	0	NONE	370.0	1
284.61279296875	0.2	COHERENT	1	0.977635937045761	0	0	0	RIGHT	372.0	1
286.1728515625	0.2	RANDOM	0	1.06847343560048	0	0	0	NONE	375.0	1
287.9228515625	0.2	RANDOM	0	0.822840919072405	0	0	0	NONE	377.0	1
289.392578125	0.2	RANDOM	0	0.869011264585879	0	0	0	NONE	381.0	1
290.88232421875	0.2	RANDOM	0	1.13754180942715	0	0	0	NONE	385.0	1
292.83251953125	0.2	RANDOM	0	0.834713724841549	0	0	0	NONE	387.0	1
294.26220703125	0.2	COHERENT	1	0.738438472792495	0	0	0	RIGHT	391.0	1
295.8720703125	0.2	RANDOM	0	0.679231705649272	0	0	0	NONE	394.0	1
297.3818359375	0.2	COHERENT	1	0.679027355990002	0	0	0	RIGHT	397.0	1
298.90185546875	0.2	COHERENT	1	0.58480737252512	0	0	180	LEFT	400.0	1
300.15185546875	0.2	RANDOM	0	0.712771008548316	0	0	0	NONE	404.0	1
318.47021484375	0.2	COHERENT	1	0.540021895899827	0	0	180	LEFT	406.0	1
319.89013671875	0.2	COHERENT	1	0.615639419743275	0	0	0	RIGHT	410.0	1
321.2001953125	0.2	COHERENT	1	0.797938634129423	0	0	180	LEFT	414.0	1
322.89990234375	0.2	COHERENT	1	0.599859219082191	0	0	180	LEFT	417.0	1
324.10986328125	0.2	COHERENT	1	1.03849078268331	0	0	0	RIGHT	421.0	1
325.7900390625	0.2	COHERENT	1	0.788407246836414	0	0	180	LEFT	423.0	1
327.3095703125	0.2	COHERENT	1	0.775277856677349	0	0	180	LEFT	426.0	1
328.77978515625	0.2	RANDOM	0	0.847950270288038	0	0	0	NONE	430.0	1
330.40966796875	0.2	COHERENT	1	n/a	0	1	0	RIGHT	433.0	0
331.95947265625	0.2	RANDOM	0	0.839388411955497	0	0	0	NONE	436.0	1
333.529296875	0.2	COHERENT	1	0.724432824049018	0	0	180	LEFT	439.0	1
335.00927734375	0.2	COHERENT	1	0.679188843534575	0	0	0	RIGHT	443.0	1
336.4189453125	0.2	COHERENT	1	0.983705755808842	0	0	0	RIGHT	447.0	1
337.9990234375	0.2	RANDOM	0	0.948535277784231	0	0	0	NONE	450.0	1
339.56884765625	0.2	RANDOM	0	1.02424577015836	0	0	0	NONE	453.0	1
341.2685546875	0.2	COHERENT	1	0.992404652169625	0	0	0	RIGHT	455.0	1
342.91845703125	0.2	RANDOM	0	n/a	0	1	0	NONE	457.0	0
344.98828125	0.2	COHERENT	1	1.04496839522699	0	0	180	LEFT	458.0	1
346.88818359375	0.2	COHERENT	1	1.1396861225453	0	0	0	RIGHT	460.0	1
348.85791015625	0.2	RANDOM	0	0.74444852607121	0	0	0	NONE	462.0	1
350.43798828125	0.2	COHERENT	1	1.0089672373465	0	0	0	RIGHT	465.0	1
352.15771484375	0.2	COHERENT	1	0.778127281766501	0	0	180	LEFT	467.0	1
353.5576171875	0.2	RANDOM	0	0.882878064226134	0	0	0	NONE	471.0	1
355.12744140625	0.2	RANDOM	0	0.792685610312674	0	0	0	NONE	474.0	1
356.5673828125	0.2	RANDOM	0	0.868475186307023	0	0	0	NONE	478.0	1
358.3173828125	0.2	RANDOM	0	0.734980224567153	0	0	0	NONE	481.0	1
359.91748046875	0.2	RANDOM	0	0.674803626617631	0	0	0	NONE	484.0	1
361.2470703125	0.2	COHERENT	1	0.837915705916203	0	0	0	RIGHT	488.0	1
362.966796875	0.2	RANDOM	0	0.574694026379802	0	0	0	NONE	491.0	1
364.30712890625	0.2	COHERENT	1	0.684458167028879	0	0	180	LEFT	495.0	1
365.73681640625	0.2	COHERENT	1	n/a	0	1	180	LEFT	499.0	0
367.27685546875	0.2	COHERENT	1	0.718045765268471	0	0	0	RIGHT	502.0	1
368.83642578125	0.2	RANDOM	0	0.939926331495371	0	0	0	NONE	505.0	1
370.63623046875	0.2	COHERENT	1	0.729661398348981	0	0	0	RIGHT	508.0	1
372.00634765625	0.2	COHERENT	1	0.928442303216798	0	0	0	RIGHT	512.0	1
n/a	0.2	RANDOM	0	0.834242543425717	1	0	0	NONE	n/a	1
375.26611328125	0.2	COHERENT	1	0.838999332619096	0	0	180	LEFT	515.0	1
376.86572265625	0.2	COHERENT	1	0.614876957055458	0	0	0	RIGHT	518.0	1
378.3759765625	0.2	RANDOM	0	0.579675992597458	0	0	0	NONE	521.0	1
379.78564453125	0.2	COHERENT	1	0.944441945831386	0	0	180	LEFT	525.0	1
381.58544921875	0.2	RANDOM	0	0.749218596483388	0	0	0	NONE	528.0	1
383.20556640625	0.2	COHERENT	1	0.83497240675888	0	0	0	RIGHT	531.0	1
384.865234375	0.2	COHERENT	1	0.824859060613562	0	0	0	RIGHT	534.0	1
386.58544921875	0.2	RANDOM	0	0.749649330551165	0	0	0	NONE	537.0	1
388.23486328125	0.2	COHERENT	1	0.759414648399343	0	0	0	RIGHT	540.0	1
389.68505859375	0.2	COHERENT	1	0.742915752702629	0	0	180	LEFT	544.0	1
391.125	0.2	RANDOM	0	0.868008532579097	0	0	0	NONE	548.0	1
392.69482421875	0.2	RANDOM	0	0.957779911492707	0	0	0	NONE	551.0	1
394.46484375	0.2	COHERENT	1	0.699709835557769	0	0	180	LEFT	554.0	1
395.87451171875	0.2	COHERENT	1	0.794433901638968	0	0	180	LEFT	558.0	1
397.2744140625	0.2	RANDOM	0	0.808193545991799	0	0	0	NONE	562.0	1
398.76416015625	0.2	RANDOM	0	0.813104578428465	0	0	0	NONE	566.0	1
400.1943359375	0.2	COHERENT	1	0.812751116905019	0	0	180	LEFT	570.0	1
401.8642578125	0.2	COHERENT	1	0.779664280977158	0	0	0	RIGHT	573.0	1
403.50390625	0.2	RANDOM	0	0.91893476174846	0	0	0	NONE	576.0	1
405.23388671875	0.2	COHERENT	1	0.775215374580057	0	0	0	RIGHT	579.0	1
406.7236328125	0.2	RANDOM	0	0.677969386187215	0	0	0	NONE	583.0	1
407.9833984375	0.2	COHERENT	1	0.757746346231215	0	0	180	LEFT	587.0	1
409.5537109375	0.2	COHERENT	1	0.799289092587969	0	0	180	LEFT	590.0	1
411.00341796875	0.2	RANDOM	0	0.928634277195215	0	0	0	NONE	594.0	1
412.703125	0.2	COHERENT	1	1.10407464769287	0	0	180	LEFT	597.0	1
414.51318359375	0.2	RANDOM	0	1.06800074495595	0	0	0	NONE	599.0	1
416.4130859375	0.2	COHERENT	1	0.964679202728348	0	0	0	RIGHT	601.0	1
418.02294921875	0.2	RANDOM	0	0.858404400429663	0	0	0	NONE	604.0	1
419.73291015625	0.2	RANDOM	0	0.86938464793775	0	0	0	NONE	607.0	1
421.3427734375	0.2	RANDOM	0	1.02018443386851	0	0	0	NONE	610.0	1
422.96240234375	0.2	RANDOM	0	0.918587940834186	0	0	0	NONE	612.0	1
424.7822265625	0.2	RANDOM	0	0.719717387741184	0	0	0	NONE	615.0	1
426.2822265625	0.2	COHERENT	1	0.604481686859799	0	0	0	RIGHT	619.0	1
427.7822265625	0.2	COHERENT	1	0.609402378364393	0	0	180	LEFT	623.0	1
429.2021484375	0.2	RANDOM	0	0.839187080754982	0	0	0	NONE	627.0	1
430.77197265625	0.2	RANDOM	0	0.763963163936296	0	0	0	NONE	630.0	1
432.3017578125	0.2	RANDOM	0	0.783674605313536	0	0	0	NONE	633.0	1
433.69189453125	0.2	RANDOM	0	0.868624901862404	0	0	0	NONE	637.0	1
435.3916015625	0.2	RANDOM	0	0.744387553203978	0	0	0	NONE	640.0	1
436.92138671875	0.2	COHERENT	1	0.669179634217016	0	0	180	LEFT	643.0	1
438.38134765625	0.2	COHERENT	1	0.794952774703233	0	0	180	LEFT	647.0	1
439.88134765625	0.2	COHERENT	1	0.907873015853511	0	0	0	RIGHT	651.0	1
441.68115234375	0.2	COHERENT	1	0.639573081263734	0	0	0	RIGHT	654.0	1
443.0107421875	0.2	COHERENT	1	0.758454174815142	0	0	180	LEFT	658.0	1
444.5009765625	0.2	COHERENT	1	0.674190275793535	0	0	0	RIGHT	662.0	1
446.03076171875	0.2	RANDOM	0	0.619931668130448	0	0	0	NONE	665.0	1
447.25048828125	0.2	COHERENT	1	0.807896831493963	0	0	0	RIGHT	669.0	1
448.95068359375	0.2	RANDOM	0	0.579632224944817	0	0	0	NONE	672.0	1
450.17041015625	0.2	COHERENT	1	0.77343780420415	0	0	0	RIGHT	676.0	1
451.72021484375	0.2	RANDOM	0	0.553993737905785	0	0	0	NONE	679.0	1
452.8701171875	0.2	COHERENT	1	0.729121396073424	0	0	180	LEFT	683.0	1
454.3603515625	0.2	RANDOM	0	0.91991364793148	0	0	0	NONE	687.0	1
455.919921875	0.2	RANDOM	0	0.938450606996867	0	0	0	NONE	690.0	1
457.509765625	0.2	COHERENT	1	1.17880957418902	0	0	180	LEFT	693.0	1
459.28955078125	0.2	RANDOM	0	0.888221641806012	0	0	0	NONE	695.0	1
461.009765625	0.2	RANDOM	0	0.863749487239147	0	0	0	NONE	698.0	1
462.69970703125	0.2	RANDOM	0	n/a	0	1	0	NONE	701.0	0
464.50927734375	0.2	RANDOM	0	0.953575802102932	0	0	0	NONE	702.0	1
466.29931640625	0.2	RANDOM	0	0.874414909495954	0	0	0	NONE	705.0	1
467.9189453125	0.2	RANDOM	0	0.669148544091968	0	0	0	NONE	708.0	1
469.3388671875	0.2	COHERENT	1	0.81020836722837	0	0	180	LEFT	712.0	1
470.9990234375	0.2	RANDOM	0	0.600743325659096	0	0	0	NONE	715.0	1
472.31884765625	0.2	RANDOM	0	0.75462948569384	0	0	0	NONE	719.0	1
473.7685546875	0.2	RANDOM	0	0.768582613254694	0	0	0	NONE	723.0	1
475.16845703125	0.2	COHERENT	1	0.723212461163712	0	0	180	LEFT	727.0	1
476.61865234375	0.2	COHERENT	1	0.874108234083906	0	0	0	RIGHT	731.0	1
478.13818359375	0.2	RANDOM	0	0.867850667184939	0	0	0	NONE	734.0	1
479.80810546875	0.2	COHERENT	1	0.709751946075812	0	0	180	LEFT	737.0	1
481.25830078125	0.2	COHERENT	1	0.854705279193695	0	0	180	LEFT	741.0	1
482.7080078125	0.2	COHERENT	1	1.15817629549974	0	0	0	RIGHT	745.0	1
484.5078125	0.2	RANDOM	0	0.767983449186886	0	0	0	NONE	747.0	1
485.91796875	0.2	COHERENT	1	0.813501505758268	0	0	180	LEFT	751.0	1
487.59765625	0.2	COHERENT	1	0.803639295382709	0	0	0	RIGHT	754.0	1
489.1875	0.2	RANDOM	0	0.744582847486981	0	0	0	NONE	757.0	1
490.78759765625	0.2	RANDOM	0	0.759930201159023	0	0	0	NONE	760.0	1
492.38720703125	0.2	COHERENT	1	0.747977406232167	0	0	0	RIGHT	763.0	1
493.76708984375	0.2	RANDOM	0	0.853616521111235	0	0	0	NONE	767.0	1
495.43701171875	0.2	RANDOM	0	0.663665815561671	0	0	0	NONE	770.0	1
496.8369140625	0.2	RANDOM	0	0.814452622119916	0	0	0	NONE	774.0	1
498.32666015625	0.2	COHERENT	1	0.863195298207302	0	0	180	LEFT	778.0	1
499.98681640625	0.2	RANDOM	0	0.668946609199338	0	0	0	NONE	781.0	1
501.32666015625	0.2	COHERENT	1	0.72327947094891	0	0	0	RIGHT	785.0	1
502.65625	0.2	RANDOM	0	0.73771826852726	0	0	0	NONE	789.0	1
503.99658203125	0.2	RANDOM	0	0.788586241442317	0	0	0	NONE	793.0	1
505.67626953125	0.2	COHERENT	1	0.759404989331415	0	0	180	LEFT	796.0	1
507.24609375	0.2	RANDOM	0	0.749047449869977	0	0	0	NONE	799.0	1
508.64599609375	0.2	COHERENT	1	0.72798011680834	0	0	180	LEFT	803.0	1
509.99609375	0.2	RANDOM	0	0.88282735411849	0	0	0	NONE	807.0	1
511.5859375	0.2	COHERENT	1	0.717592996451003	0	0	180	LEFT	810.0	1
513.15576171875	0.2	COHERENT	1	0.559658177653546	0	0	0	RIGHT	813.0	1
514.435546875	0.2	COHERENT	1	0.774161328773971	0	0	0	RIGHT	817.0	1
515.865234375	0.2	RANDOM	0	0.907946364402051	0	0	0	NONE	821.0	1
517.42529296875	0.2	RANDOM	0	0.897889765281434	0	0	0	NONE	824.0	1
519.025390625	0.2	COHERENT	1	0.818621113696736	0	0	180	LEFT	827.0	1
520.64501953125	0.2	RANDOM	0	0.899411068507561	0	0	0	NONE	830.0	1
522.39501953125	0.2	COHERENT	1	0.659232605150009	0	0	180	LEFT	833.0	1
523.90478515625	0.2	RANDOM	0	n/a	0	1	0	NONE	836.0	0
525.91455078125	0.2	COHERENT	1	0.759842364008819	0	0	0	RIGHT	837.0	1
527.54443359375	0.2	RANDOM	0	0.654223472803551	0	0	0	NONE	840.0	1
528.79443359375	0.2	RANDOM	0	0.788389437929709	0	0	0	NONE	844.0	1
530.41455078125	0.2	RANDOM	0	0.704059132815019	0	0	0	NONE	847.0	1
531.7841796875	0.2	COHERENT	1	n/a	0	1	0	RIGHT	851.0	0
533.7841796875	0.2	COHERENT	1	0.870672624299459	0	0	0	RIGHT	852.0	1
535.333984375	0.2	COHERENT	1	0.993475903190756	0	0	0	RIGHT	855.0	1
537.00390625	0.2	COHERENT	1	0.833626475988694	0	0	0	RIGHT	858.0	1
538.603515625	0.2	COHERENT	1	0.744181392469727	0	0	180	LEFT	861.0	1
540.07373046875	0.2	RANDOM	0	0.624711397610099	0	0	0	NONE	865.0	1
541.45361328125	0.2	RANDOM	0	0.720811880894871	0	0	0	NONE	869.0	1
542.92333984375	0.2	COHERENT	1	0.719617778601332	0	0	180	LEFT	873.0	1
544.5234375	0.2	RANDOM	0	1.02408066046291	0	0	0	NONE	876.0	1
546.14306640625	0.2	RANDOM	0	0.898201270228128	0	0	0	NONE	878.0	1
547.64306640625	0.2	RANDOM	0	n/a	0	1	0	NONE	882.0	0
549.4931640625	0.2	RANDOM	0	0.758808541876078	0	0	0	NONE	883.0	1
551.03271484375	0.2	RANDOM	0	0.734556432954832	0	0	0	NONE	886.0	1
577.82080078125	0.2	COHERENT	1	0.729885669836676	0	0	0	RIGHT	888.0	1
579.33056640625	0.2	COHERENT	1	0.489882578934612	0	0	0	RIGHT	891.0	1
580.640625	0.2	COHERENT	1	0.529763361887035	0	0	180	LEFT	895.0	1
581.80029296875	0.2	COHERENT	1	0.53865091192165	0	0	180	LEFT	899.0	1
582.9501953125	0.2	COHERENT	1	0.648480553126774	0	0	180	LEFT	903.0	1
584.51025390625	0.2	RANDOM	0	0.539374134645641	0	0	0	NONE	906.0	1
585.8603515625	0.2	RANDOM	0	0.564110706201518	0	0	0	NONE	910.0	1
587.1201171875	0.2	RANDOM	0	0.737892433599427	0	0	0	NONE	914.0	1
588.64013671875	0.2	RANDOM	0	0.574677123010588	0	0	0	NONE	917.0	1
589.93994140625	0.2	RANDOM	0	0.59460166757799	0	0	0	NONE	921.0	1
591.43994140625	0.2	RANDOM	0	0.479397962359144	0	0	0	NONE	925.0	1
592.8095703125	0.2	RANDOM	0	0.529219435614777	0	0	0	NONE	929.0	1
594.24951171875	0.2	COHERENT	1	0.650046227696293	0	0	0	RIGHT	933.0	1
595.62939453125	0.2	COHERENT	1	0.664859012318175	0	0	180	LEFT	937.0	1
597.029296875	0.2	RANDOM	0	0.629644464795547	0	0	0	NONE	941.0	1
598.54931640625	0.2	RANDOM	0	0.564643464176697	0	0	0	NONE	944.0	1
599.88916015625	0.2	COHERENT	1	0.553955403478994	0	0	180	LEFT	948.0	1
601.13916015625	0.2	COHERENT	1	1.08810126566959	0	0	0	RIGHT	952.0	1
602.96875	0.2	COHERENT	1	0.930598992015803	0	0	0	RIGHT	954.0	1
604.68896484375	0.2	RANDOM	0	0.964671052889571	0	0	0	NONE	957.0	1
606.53857421875	0.2	COHERENT	1	0.699592115664927	0	0	0	RIGHT	960.0	1
607.9384765625	0.2	COHERENT	1	0.878024684352113	0	0	180	LEFT	964.0	1
609.45849609375	0.2	RANDOM	0	0.682965237315784	0	0	0	NONE	967.0	1
610.75830078125	0.2	RANDOM	0	0.823900398104797	0	0	0	NONE	971.0	1
612.498046875	0.2	RANDOM	0	0.759657634331234	0	0	0	NONE	974.0	1
614.09814453125	0.2	COHERENT	1	0.739559226537949	0	0	0	RIGHT	977.0	1
615.51806640625	0.2	RANDOM	0	0.932928336657369	0	0	0	NONE	981.0	1
617.14794921875	0.2	RANDOM	0	0.988169754499722	0	0	0	NONE	984.0	1
618.767578125	0.2	COHERENT	1	0.772868221031786	0	0	180	LEFT	987.0	1
620.1875	0.2	COHERENT	1	0.977763316006076	0	0	180	LEFT	991.0	1
621.767578125	0.2	RANDOM	0	0.86848152506991	0	0	0	NONE	994.0	1
623.2373046875	0.2	RANDOM	0	0.968349950452193	0	0	0	NONE	998.0	1
624.9072265625	0.2	RANDOM	0	0.85808142534006	0	0	0	NONE	1001.0	1
626.6171875	0.2	RANDOM	0	0.739870429638358	0	0	0	NONE	1004.0	1
628.0771484375	0.2	RANDOM	0	0.934758730062185	0	0	0	NONE	1008.0	1
629.68701171875	0.2	RANDOM	0	0.823386052728438	0	0	0	NONE	1011.0	1
631.40673828125	0.2	RANDOM	0	0.669281356278134	0	0	0	NONE	1014.0	1
632.95654296875	0.2	COHERENT	1	0.684065465541607	0	0	0	RIGHT	1017.0	1
634.4462890625	0.2	COHERENT	1	0.609917931124528	0	0	0	RIGHT	1021.0	1
635.67626953125	0.2	COHERENT	1	0.794279054703111	0	0	180	LEFT	1025.0	1
637.29638671875	0.2	COHERENT	1	0.623559553739142	0	0	0	RIGHT	1028.0	1
638.72607421875	0.2	RANDOM	0	0.779310819454167	0	0	0	NONE	1032.0	1
640.13623046875	0.2	COHERENT	1	0.873284194836742	0	0	180	LEFT	1036.0	1
641.7958984375	0.2	COHERENT	1	0.609643553220849	0	0	0	RIGHT	1039.0	1
643.1357421875	0.2	RANDOM	0	1.01479225910225	0	0	0	NONE	1043.0	1
644.90576171875	0.2	COHERENT	1	0.989457127169771	0	0	0	RIGHT	1045.0	1
646.7158203125	0.2	COHERENT	1	0.57429860827915	0	0	0	RIGHT	1048.0	1
647.9853515625	0.2	RANDOM	0	0.808091823930681	0	0	0	NONE	1052.0	1
649.45556640625	0.2	RANDOM	0	1.07786627563519	0	0	0	NONE	1056.0	1
651.29541015625	0.2	RANDOM	0	0.739771424190167	0	0	0	NONE	1058.0	1
652.8251953125	0.2	RANDOM	0	0.969268769305017	0	0	0	NONE	1061.0	1
654.4248046875	0.2	RANDOM	0	0.903047707646692	0	0	0	NONE	1064.0	1
656.02490234375	0.2	COHERENT	1	0.778697770475901	0	0	180	LEFT	1067.0	1
657.544921875	0.2	RANDOM	0	0.83958430993016	0	0	0	NONE	1070.0	1
659.29443359375	0.2	COHERENT	1	0.689638445988749	0	0	0	RIGHT	1073.0	1
660.814453125	0.2	COHERENT	1	0.714576952437255	0	0	180	LEFT	1076.0	1
662.24462890625	0.2	RANDOM	0	0.874278173313542	0	0	0	NONE	1080.0	1
663.76416015625	0.2	RANDOM	0	1.01811467668222	0	0	0	NONE	1083.0	1
665.4541015625	0.2	RANDOM	0	0.917861095959779	0	0	0	NONE	1085.0	1
667.18408203125	0.2	RANDOM	0	0.834185494554731	0	0	0	NONE	1088.0	1
668.82373046875	0.2	RANDOM	0	0.700387177707853	0	0	0	NONE	1091.0	1
670.35400390625	0.2	COHERENT	1	0.704039210986593	0	0	0	RIGHT	1094.0	1
671.853515625	0.2	RANDOM	0	0.519076508572653	0	0	0	NONE	1098.0	1
673.0234375	0.2	COHERENT	1	0.667887733859061	0	0	180	LEFT	1102.0	1
674.37353515625	0.2	RANDOM	0	0.592814739979076	0	0	0	NONE	1106.0	1
675.59326171875	0.2	RANDOM	0	0.763524883721402	0	0	0	NONE	1110.0	1
676.97314453125	0.2	COHERENT	1	0.68335552403596	0	0	180	LEFT	1114.0	1
678.29296875	0.2	RANDOM	0	0.59331037091124	0	0	0	NONE	1118.0	1
679.48291015625	0.2	RANDOM	0	0.6088364173429	0	0	0	NONE	1122.0	1
680.76318359375	0.2	COHERENT	1	0.642690545493224	0	0	180	LEFT	1126.0	1
682.11279296875	0.2	RANDOM	0	0.628773639436986	0	0	0	NONE	1130.0	1
683.36279296875	0.2	COHERENT	1	0.544227514519662	0	0	180	LEFT	1134.0	1
684.5126953125	0.2	COHERENT	1	n/a	0	1	0	RIGHT	1138.0	0
685.9326171875	0.2	RANDOM	0	0.604295146106779	0	0	0	NONE	1142.0	1
687.4326171875	0.2	COHERENT	1	n/a	0	1	180	LEFT	1146.0	0
689.5322265625	0.2	RANDOM	0	0.889442910228809	0	0	0	NONE	1147.0	1
691.30224609375	0.2	RANDOM	0	0.784622099525222	0	0	0	NONE	1150.0	1
692.921875	0.2	COHERENT	1	0.644346170134213	0	0	0	RIGHT	1153.0	1
694.4619140625	0.2	COHERENT	1	0.530217338087823	0	0	180	LEFT	1156.0	1
695.591796875	0.2	RANDOM	0	0.718030069282577	0	0	0	NONE	1160.0	1
697.0615234375	0.2	RANDOM	0	0.620826641158601	0	0	0	NONE	1164.0	1
698.3818359375	0.2	RANDOM	0	0.60774735741461	0	0	0	NONE	1168.0	1
699.861328125	0.2	COHERENT	1	0.604501004996109	0	0	180	LEFT	1172.0	1
701.1416015625	0.2	COHERENT	1	0.593369532703491	0	0	180	LEFT	1176.0	1
702.50146484375	0.2	RANDOM	0	0.62917569814681	0	0	0	NONE	1180.0	1
703.75146484375	0.2	COHERENT	1	0.78264048133542	0	0	180	LEFT	1184.0	1
705.3310546875	0.2	COHERENT	1	0.769808711211681	0	0	0	RIGHT	1187.0	1
706.87109375	0.2	RANDOM	0	0.805306088322141	0	0	0	NONE	1190.0	1
708.35107421875	0.2	COHERENT	1	0.752505094403659	0	0	0	RIGHT	1194.0	1
709.95068359375	0.2	COHERENT	1	0.469111960371265	0	0	180	LEFT	1197.0	1
711.04052734375	0.2	RANDOM	0	0.828122014555902	0	0	0	NONE	1201.0	1
712.6005859375	0.2	RANDOM	0	0.599878537218501	0	0	0	NONE	1204.0	1
713.8505859375	0.2	COHERENT	1	0.728728392739868	0	0	0	RIGHT	1208.0	1
715.4404296875	0.2	RANDOM	0	0.709535824427348	0	0	0	NONE	1211.0	1
716.81005859375	0.2	COHERENT	1	0.708288295412785	0	0	180	LEFT	1215.0	1
718.34033203125	0.2	RANDOM	0	0.774078924849164	0	0	0	NONE	1218.0	1
719.740234375	0.2	COHERENT	1	0.802888000992425	0	0	0	RIGHT	1222.0	1
721.2900390625	0.2	COHERENT	1	0.659756911440581	0	0	180	LEFT	1225.0	1
722.599609375	0.2	RANDOM	0	0.728585619639489	0	0	0	NONE	1229.0	1
724.1298828125	0.2	RANDOM	0	0.69912153794121	0	0	0	NONE	1232.0	1
725.6494140625	0.2	RANDOM	0	0.654015199147125	0	0	0	NONE	1235.0	1
727.1796875	0.2	RANDOM	0	0.594021217953923	0	0	0	NONE	1238.0	1
728.37939453125	0.2	COHERENT	1	0.787810497535702	0	0	0	RIGHT	1242.0	1
729.76953125	0.2	RANDOM	0	0.848458880592716	0	0	0	NONE	1246.0	1
731.26904296875	0.2	COHERENT	1	0.698581837511028	0	0	0	RIGHT	1250.0	1
732.56884765625	0.2	RANDOM	0	0.958357040811279	0	0	0	NONE	1254.0	1
734.4091796875	0.2	RANDOM	0	0.684096857512941	0	0	0	NONE	1257.0	1
735.90869140625	0.2	COHERENT	1	0.754792180622189	0	0	180	LEFT	1261.0	1
737.4384765625	0.2	COHERENT	1	0.544540528695052	0	0	0	RIGHT	1264.0	1
738.70849609375	0.2	RANDOM	0	0.664597613787464	0	0	0	NONE	1268.0	1
740.1787109375	0.2	RANDOM	0	0.659415523752159	0	0	0	NONE	1272.0	1
741.6884765625	0.2	RANDOM	0	0.659074739755852	0	0	0	NONE	1275.0	1
743.078125	0.2	COHERENT	1	0.644993629543023	0	0	180	LEFT	1279.0	1
744.498046875	0.2	RANDOM	0	0.754745394511247	0	0	0	NONE	1283.0	1
746.02783203125	0.2	COHERENT	1	0.694630674966447	0	0	180	LEFT	1286.0	1
747.498046875	0.2	COHERENT	1	0.634288967321481	0	0	180	LEFT	1290.0	1
748.748046875	0.2	COHERENT	1	0.603234761537351	0	0	180	LEFT	1294.0	1
750.23779296875	0.2	COHERENT	1	0.614531041679129	0	0	0	RIGHT	1298.0	1
751.56787109375	0.2	RANDOM	0	0.913816964885427	0	0	0	NONE	1302.0	1
753.3173828125	0.2	COHERENT	1	0.754459848310034	0	0	180	LEFT	1305.0	1
754.7373046875	0.2	COHERENT	1	0.763517639420115	0	0	0	RIGHT	1309.0	1
756.107421875	0.2	COHERENT	1	n/a	0	1	0	RIGHT	1313.0	0
757.80712890625	0.2	COHERENT	1	0.894073225998909	0	0	0	RIGHT	1316.0	1
759.42724609375	0.2	RANDOM	0	1.01480735139603	0	0	0	NONE	1319.0	1
761.287109375	0.2	COHERENT	1	0.839319892941603	0	0	0	RIGHT	1321.0	1
762.90673828125	0.2	COHERENT	1	0.724334120446656	0	0	180	LEFT	1324.0	1
764.44677734375	0.2	COHERENT	1	0.829106635809694	0	0	0	RIGHT	1327.0	1
765.99658203125	0.2	COHERENT	1	0.845027496650346	0	0	0	RIGHT	1330.0	1
767.71630859375	0.2	COHERENT	1	0.774807278953176	0	0	0	RIGHT	1333.0	1
769.21630859375	0.2	RANDOM	0	0.674713072854502	0	0	0	NONE	1337.0	1
770.51611328125	0.2	RANDOM	0	0.643455724793967	0	0	0	NONE	1341.0	1
771.9462890625	0.2	RANDOM	0	0.879315075481372	0	0	0	NONE	1345.0	1
773.5361328125	0.2	COHERENT	1	0.918046731174854	0	0	0	RIGHT	1348.0	1
775.3359375	0.2	RANDOM	0	0.5938449399614	0	0	0	NONE	1351.0	1
776.66552734375	0.2	RANDOM	0	0.64979177162104	0	0	0	NONE	1355.0	1
778.17578125	0.2	RANDOM	0	0.588518265750736	0	0	0	NONE	1358.0	1
779.4755859375	0.2	COHERENT	1	0.738296303384232	0	0	180	LEFT	1362.0	1
781.0751953125	0.2	RANDOM	0	0.724066081306773	0	0	0	NONE	1365.0	1
782.55517578125	0.2	COHERENT	1	0.509849381925051	0	0	180	LEFT	1369.0	1
783.6552734375	0.2	COHERENT	1	0.998769374354652	0	0	180	LEFT	1373.0	1
785.34521484375	0.2	COHERENT	1	0.743570154566441	0	0	0	RIGHT	1375.0	1
786.9150390625	0.2	COHERENT	1	n/a	0	1	0	RIGHT	1378.0	0
788.9248046875	0.2	RANDOM	0	0.954028872765775	0	0	0	NONE	1379.0	1
790.564453125	0.2	COHERENT	1	0.802936598178803	0	0	180	LEFT	1382.0	1
792.11474609375	0.2	COHERENT	1	0.699714061399845	0	0	0	RIGHT	1385.0	1
793.564453125	0.2	COHERENT	1	0.72954971537456	0	0	180	LEFT	1389.0	1
794.95458984375	0.2	COHERENT	1	0.798234141243938	0	0	0	RIGHT	1393.0	1
796.63427734375	0.2	COHERENT	1	0.649237280742909	0	0	180	LEFT	1396.0	1
798.07421875	0.2	COHERENT	1	0.704950483692755	0	0	180	LEFT	1400.0	1
799.4541015625	0.2	RANDOM	0	0.642724955922858	0	0	0	NONE	1404.0	1
819.13232421875	0.2	COHERENT	1	0.61001633288015	0	0	0	RIGHT	1406.0	1
n/a	0.2	COHERENT	1	0.569993682365748	1	0	0	RIGHT	n/a	1
821.75244140625	0.2	RANDOM	0	0.987897791363594	0	0	0	NONE	1410.0	1
823.60205078125	0.2	RANDOM	0	0.609658041822968	0	0	0	NONE	1412.0	1
824.9921875	0.2	COHERENT	1	0.644448194041161	0	0	180	LEFT	1416.0	1
826.47216796875	0.2	COHERENT	1	0.549255965002885	0	0	0	RIGHT	1420.0	1
827.7216796875	0.2	RANDOM	0	0.728056785661011	0	0	0	NONE	1424.0	1
829.33154296875	0.2	RANDOM	0	0.595009763204871	0	0	0	NONE	1427.0	1
830.83154296875	0.2	RANDOM	0	0.628729268093139	0	0	0	NONE	1431.0	1
832.2314453125	0.2	COHERENT	1	0.554547323245515	0	0	180	LEFT	1435.0	1
833.46142578125	0.2	RANDOM	0	0.653320953627826	0	0	0	NONE	1439.0	1
834.8115234375	0.2	COHERENT	1	0.867944239407279	0	0	0	RIGHT	1443.0	1
836.5712890625	0.2	COHERENT	1	0.535013970936234	0	0	180	LEFT	1446.0	1
837.87109375	0.2	COHERENT	1	0.79475748042023	0	0	0	RIGHT	1450.0	1
839.52099609375	0.2	RANDOM	0	0.639531426532358	0	0	0	NONE	1453.0	1
840.8408203125	0.2	RANDOM	0	0.633466739149753	0	0	0	NONE	1457.0	1
842.1005859375	0.2	RANDOM	0	0.74325019793514	0	0	0	NONE	1461.0	1
843.640625	0.2	RANDOM	0	0.569051923226198	0	0	0	NONE	1464.0	1
844.890625	0.2	COHERENT	1	0.82296799618689	0	0	180	LEFT	1468.0	1
846.59033203125	0.2	COHERENT	1	0.653674415150817	0	0	180	LEFT	1471.0	1
847.84033203125	0.2	RANDOM	0	0.938528785079598	0	0	0	NONE	1475.0	1
849.43017578125	0.2	RANDOM	0	0.928295002428513	0	0	0	NONE	1478.0	1
851.01025390625	0.2	RANDOM	0	0.887950282361999	0	0	0	NONE	1481.0	1
852.60009765625	0.2	RANDOM	0	0.927549141263626	0	0	0	NONE	1484.0	1
854.4296875	0.2	COHERENT	1	0.598740578258003	0	0	180	LEFT	1487.0	1
855.72998046875	0.2	COHERENT	1	0.718568562329438	0	0	180	LEFT	1491.0	1
857.24951171875	0.2	RANDOM	0	0.859255002114423	0	0	0	NONE	1494.0	1
858.76953125	0.2	RANDOM	0	0.928071032787102	0	0	0	NONE	1497.0	1
860.33935546875	0.2	COHERENT	1	n/a	0	1	0	RIGHT	1500.0	0
862.2392578125	0.2	COHERENT	1	0.788316693073284	0	0	180	LEFT	1501.0	1
863.71923828125	0.2	COHERENT	1	0.708480873082863	0	0	0	RIGHT	1505.0	1
865.2890625	0.2	COHERENT	1	0.559266381703765	0	0	0	RIGHT	1508.0	1
866.7587890625	0.2	RANDOM	0	0.818869231008193	0	0	0	NONE	1512.0	1
868.1787109375	0.2	RANDOM	0	0.808012136619254	0	0	0	NONE	1516.0	1
869.87890625	0.2	COHERENT	1	0.589740137865192	0	0	180	LEFT	1519.0	1
871.12841796875	0.2	RANDOM	0	0.797514842516193	0	0	0	NONE	1523.0	1
872.5986328125	0.2	RANDOM	0	0.8032915689314	0	0	0	NONE	1527.0	1
874.2783203125	0.2	COHERENT	1	0.535249410721462	0	0	180	LEFT	1530.0	1
875.67822265625	0.2	RANDOM	0	0.535022120775011	0	0	0	NONE	1534.0	1
877.068359375	0.2	RANDOM	0	0.779776869489979	0	0	0	NONE	1538.0	1
878.56787109375	0.2	COHERENT	1	0.764626319330546	0	0	0	RIGHT	1542.0	1
880.01806640625	0.2	COHERENT	1	0.633565442752115	0	0	0	RIGHT	1546.0	1
881.36767578125	0.2	RANDOM	0	0.724244472221017	0	0	0	NONE	1550.0	1
882.81787109375	0.2	COHERENT	1	0.824877775057757	0	0	0	RIGHT	1554.0	1
884.2578125	0.2	RANDOM	0	0.737924731108251	0	0	0	NONE	1558.0	1
885.8876953125	0.2	RANDOM	0	0.758430027144641	0	0	0	NONE	1561.0	1
887.25732421875	0.2	COHERENT	1	0.868461905088225	0	0	180	LEFT	1565.0	1
888.87744140625	0.2	RANDOM	0	0.549428620844992	0	0	0	NONE	1568.0	1
890.02734375	0.2	COHERENT	1	0.818178305793481	0	0	180	LEFT	1572.0	1
891.68701171875	0.2	COHERENT	1	0.739956455713582	0	0	0	RIGHT	1575.0	1
893.32666015625	0.2	COHERENT	1	0.59974361211107	0	0	180	LEFT	1578.0	1
894.546875	0.2	RANDOM	0	0.573252108619727	0	0	0	NONE	1582.0	1
895.9267578125	0.2	RANDOM	0	0.559482503352683	0	0	0	NONE	1586.0	1
897.31640625	0.2	COHERENT	1	0.784238453414218	0	0	0	RIGHT	1590.0	1
898.7666015625	0.2	RANDOM	0	0.643058797464164	0	0	0	NONE	1594.0	1
900.21630859375	0.2	COHERENT	1	0.619889107861582	0	0	180	LEFT	1598.0	1
901.51611328125	0.2	RANDOM	0	0.742578590856738	0	0	0	NONE	1602.0	1
903.0361328125	0.2	COHERENT	1	0.674443524485469	0	0	180	LEFT	1605.0	1
904.3359375	0.2	COHERENT	1	0.873240729030385	0	0	0	RIGHT	1609.0	1
906.0859375	0.2	RANDOM	0	0.834012536866339	0	0	0	NONE	1612.0	1
907.7255859375	0.2	COHERENT	1	0.749791499959883	0	0	0	RIGHT	1615.0	1
909.27587890625	0.2	COHERENT	1	0.779690843414755	0	0	180	LEFT	1618.0	1
910.78564453125	0.2	RANDOM	0	0.629536705817372	0	0	0	NONE	1621.0	1
912.025390625	0.2	COHERENT	1	0.708282258495274	0	0	180	LEFT	1625.0	1
913.50537109375	0.2	RANDOM	0	0.574042944820576	0	0	0	NONE	1629.0	1
914.97509765625	0.2	RANDOM	0	0.529990048141372	0	0	0	NONE	1633.0	1
916.14501953125	0.2	RANDOM	0	0.733518686825391	0	0	0	NONE	1637.0	1
917.5751953125	0.2	COHERENT	1	0.777708017841633	0	0	180	LEFT	1641.0	1
918.96484375	0.2	RANDOM	0	0.598441147147241	0	0	0	NONE	1645.0	1
920.24462890625	0.2	RANDOM	0	0.628298232179077	0	0	0	NONE	1649.0	1
921.66455078125	0.2	COHERENT	1	0.805042878715994	0	0	180	LEFT	1653.0	1
923.36474609375	0.2	COHERENT	1	0.62993333130089	0	0	0	RIGHT	1656.0	1
924.71435546875	0.2	COHERENT	1	0.684740694770881	0	0	180	LEFT	1660.0	1
926.154296875	0.2	RANDOM	0	0.679503366940025	0	0	0	NONE	1664.0	1
927.484375	0.2	RANDOM	0	0.738269137254974	0	0	0	NONE	1668.0	1
928.8740234375	0.2	RANDOM	0	0.768164858559885	0	0	0	NONE	1672.0	1
930.23388671875	0.2	RANDOM	0	0.887949980516169	0	0	0	NONE	1676.0	1
932.00390625	0.2	RANDOM	0	0.684914859842593	0	0	0	NONE	1679.0	1
933.5439453125	0.2	COHERENT	1	0.708529168423865	0	0	180	LEFT	1682.0	1
934.853515625	0.2	COHERENT	1	1.03829669578363	0	0	180	LEFT	1686.0	1
936.49365234375	0.2	RANDOM	0	1.1277970170986	0	0	0	NONE	1688.0	1
938.29345703125	0.2	RANDOM	0	0.832938267386908	0	0	0	NONE	1690.0	1
939.7333984375	0.2	COHERENT	1	0.788675889667957	0	0	0	RIGHT	1694.0	1
941.39306640625	0.2	RANDOM	0	0.784660735797843	0	0	0	NONE	1697.0	1
942.93310546875	0.2	RANDOM	0	0.699381125396485	0	0	0	NONE	1700.0	1
944.3330078125	0.2	COHERENT	1	0.768170291785282	0	0	0	RIGHT	1704.0	1
945.953125	0.2	COHERENT	1	0.679692624305517	0	0	180	LEFT	1707.0	1
947.3330078125	0.2	RANDOM	0	0.708714501793111	0	0	0	NONE	1711.0	1
n/a	0.2	RANDOM	0	1.15965654768615	1	0	0	NONE	n/a	1
950.87255859375	0.2	COHERENT	1	0.904288294205344	0	0	180	LEFT	1714.0	1
952.392578125	0.2	COHERENT	1	n/a	0	1	180	LEFT	1717.0	0
954.35205078125	0.2	RANDOM	0	0.794562487982603	0	0	0	NONE	1718.0	1
955.92236328125	0.2	COHERENT	1	0.784684581622059	0	0	180	LEFT	1721.0	1
957.56201171875	0.2	COHERENT	1	0.719467761200121	0	0	0	RIGHT	1724.0	1
959.162109375	0.2	RANDOM	0	0.725463929568377	0	0	0	NONE	1727.0	1
960.56201171875	0.2	RANDOM	0	0.903001827072785	0	0	0	NONE	1731.0	1
962.181640625	0.2	COHERENT	1	0.854900271630868	0	0	180	LEFT	1734.0	1
963.76171875	0.2	RANDOM	0	1.02475347492509	0	0	0	NONE	1737.0	1
965.66162109375	0.2	RANDOM	0	1.05444635579988	0	0	0	NONE	1739.0	1
967.521484375	0.2	COHERENT	1	n/a	0	1	180	LEFT	1741.0	0
969.47119140625	0.2	RANDOM	0	0.834990819357245	0	0	0	NONE	1743.0	1
971.201171875	0.2	COHERENT	1	0.79036652843115	0	0	0	RIGHT	1746.0	1
972.62109375	0.2	RANDOM	0	0.662481976028175	0	0	0	NONE	1750.0	1
974.19091796875	0.2	RANDOM	0	0.679147490649484	0	0	0	NONE	1753.0	1
975.5205078125	0.2	RANDOM	0	0.74896655517523	0	0	0	NONE	1757.0	1
976.99072265625	0.2	COHERENT	1	n/a	0	1	0	RIGHT	1761.0	0
978.990234375	0.2	COHERENT	1	0.750704885586856	0	0	180	LEFT	1762.0	1
980.38037109375	0.2	RANDOM	0	0.693519580289376	0	0	0	NONE	1766.0	1
981.8603515625	0.2	RANDOM	0	n/a	0	1	0	NONE	1770.0	0
983.2001953125	0.2	COHERENT	1	0.864917630787659	0	0	0	RIGHT	1774.0	1
984.9599609375	0.2	COHERENT	1	0.628996401695076	0	0	0	RIGHT	1777.0	1
986.47998046875	0.2	COHERENT	1	0.66985486344629	0	0	0	RIGHT	1780.0	1
987.919921875	0.2	RANDOM	0	0.659642511852326	0	0	0	NONE	1784.0	1
989.2197265625	0.2	RANDOM	0	0.818431252639584	0	0	0	NONE	1788.0	1
990.8193359375	0.2	RANDOM	0	0.664238417192792	0	0	0	NONE	1791.0	1
992.28955078125	0.2	COHERENT	1	0.719004729623066	0	0	180	LEFT	1795.0	1
993.79931640625	0.2	RANDOM	0	0.689947234322062	0	0	0	NONE	1798.0	1
995.30908203125	0.2	COHERENT	1	n/a	0	1	0	RIGHT	1801.0	0
996.6689453125	0.2	RANDOM	0	0.924458541317563	0	0	0	NONE	1805.0	1
998.48876953125	0.2	RANDOM	0	0.739440299261787	0	0	0	NONE	1808.0	1
1000.0087890625	0.2	COHERENT	1	0.71400495449825	0	0	180	LEFT	1811.0	1
1001.52880859375	0.2	RANDOM	0	0.729643891288106	0	0	0	NONE	1814.0	1
1003.02880859375	0.2	COHERENT	1	0.714682900340449	0	0	0	RIGHT	1818.0	1
1004.42822265625	0.2	COHERENT	1	0.72344367510641	0	0	0	RIGHT	1822.0	1
1005.828125	0.2	COHERENT	1	0.683213354627242	0	0	0	RIGHT	1826.0	1
1007.22802734375	0.2	COHERENT	1	0.584139991288794	0	0	180	LEFT	1830.0	1
1008.54833984375	0.2	COHERENT	1	0.77493345053017	0	0	180	LEFT	1834.0	1
1010.16796875	0.2	COHERENT	1	0.659706201332938	0	0	180	LEFT	1837.0	1
1011.498046875	0.2	RANDOM	0	0.77364004094261	0	0	0	NONE	1841.0	1
1012.89794921875	0.2	COHERENT	1	0.823428311151019	0	0	180	LEFT	1845.0	1
1014.41748046875	0.2	COHERENT	1	0.648213419524382	0	0	0	RIGHT	1848.0	1
1015.8173828125	0.2	RANDOM	0	0.789914665152082	0	0	0	NONE	1852.0	1
1017.36767578125	0.2	COHERENT	1	0.899836671195317	0	0	0	RIGHT	1855.0	1
1018.92724609375	0.2	COHERENT	1	0.77764281913187	0	0	0	RIGHT	1858.0	1
1020.4873046875	0.2	RANDOM	0	0.999398119319267	0	0	0	NONE	1861.0	1
1022.296875	0.2	COHERENT	1	0.709063435627741	0	0	0	RIGHT	1863.0	1
1023.7568359375	0.2	COHERENT	1	0.919663417698303	0	0	0	RIGHT	1867.0	1
1025.44677734375	0.2	RANDOM	0	0.854729426863742	0	0	0	NONE	1870.0	1
1027.11669921875	0.2	RANDOM	0	0.679609616688595	0	0	0	NONE	1873.0	1
1028.466796875	0.2	COHERENT	1	0.693406086239065	0	0	180	LEFT	1877.0	1
1029.99658203125	0.2	RANDOM	0	0.609075781124375	0	0	0	NONE	1880.0	1
1031.41650390625	0.2	COHERENT	1	0.739974566466572	0	0	180	LEFT	1884.0	1
1032.986328125	0.2	COHERENT	1	0.834325249196354	0	0	0	RIGHT	1887.0	1
1034.5859375	0.2	RANDOM	0	0.625271019867796	0	0	0	NONE	1890.0	1
1035.8359375	0.2	COHERENT	1	0.832414262942166	0	0	0	RIGHT	1894.0	1
1037.4658203125	0.2	COHERENT	1	0.750226761716021	0	0	0	RIGHT	1897.0	1
1039.0556640625	0.2	COHERENT	1	0.684847548211565	0	0	0	RIGHT	1900.0	1
1040.505859375	0.2	RANDOM	0	n/a	0	1	0	NONE	1904.0	0
1042.3056640625	0.2	RANDOM	0	0.658307749379674	0	0	0	NONE	1905.0	1
1043.6552734375	0.2	COHERENT	1	n/a	0	1	180	LEFT	1909.0	0
