onset	duration	trial_type	trial_type_id	response_time	bad_epoch	outliers	event_num	response_accuracy
19.87744140625	0.2	SCRAMBLED	0	0.676428462979402	0	0	1.0	1
n/a	0.2	SCRAMBLED	0	0.592225838671311	1	0	n/a	1
22.81689453125	0.2	FACES	1	0.576045994067499	0	0	9.0	1
24.126953125	0.2	SCRAMBLED	0	0.569690930949946	0	0	17.0	1
25.5771484375	0.2	FACES	1	0.486785640225662	0	0	25.0	1
26.98681640625	0.2	FACES	1	0.521471957461472	0	0	33.0	1
28.466796875	0.2	FACES	1	0.520380180920256	0	0	41.0	1
29.896484375	0.2	SCRAMBLED	0	0.515829250616207	0	0	49.0	1
31.21630859375	0.2	FACES	1	0.651979852391378	0	0	57.0	1
32.71630859375	0.2	SCRAMBLED	0	0.591738961269584	0	0	64.0	1
33.986328125	0.2	FACES	1	0.794545886459673	0	0	72.0	1
35.5361328125	0.2	FACES	1	0.740400471000157	0	0	78.0	1
37.18603515625	0.2	FACES	1	0.613221030568184	0	0	84.0	1
38.72607421875	0.2	SCRAMBLED	0	0.568046172760205	0	0	90.0	1
40.07568359375	0.2	SCRAMBLED	0	0.551820145737111	0	0	98.0	1
41.32568359375	0.2	FACES	1	0.581741222095388	0	0	106.0	1
42.595703125	0.2	SCRAMBLED	0	0.510536081298142	0	0	114.0	1
43.96533203125	0.2	SCRAMBLED	0	0.477436567843142	0	0	122.0	1
45.115234375	0.2	SCRAMBLED	0	0.625241438971443	0	0	130.0	1
46.58544921875	0.2	SCRAMBLED	0	0.422388331362527	0	0	138.0	1
47.84521484375	0.2	SCRAMBLED	0	0.427942899211303	0	0	146.0	1
49.01513671875	0.2	SCRAMBLED	0	0.530752510829643	0	0	154.0	1
50.365234375	0.2	FACES	1	0.58150940446103	0	0	162.0	1
51.634765625	0.2	SCRAMBLED	0	0.610454009403384	0	0	170.0	1
53.0048828125	0.2	FACES	1	0.750069500013524	0	0	178.0	1
54.474609375	0.2	FACES	1	0.590035041288047	0	0	186.0	1
55.83447265625	0.2	SCRAMBLED	0	0.792806348663817	0	0	194.0	1
57.3544921875	0.2	SCRAMBLED	0	0.575668083027722	0	0	200.0	1
58.70458984375	0.2	FACES	1	0.497097902804853	0	0	208.0	1
60.09423828125	0.2	SCRAMBLED	0	0.620257057986692	0	0	216.0	1
61.59423828125	0.2	SCRAMBLED	0	0.403182481830754	0	0	223.0	1
62.6640625	0.2	SCRAMBLED	0	0.535975953750039	0	0	231.0	1
64.01416015625	0.2	SCRAMBLED	0	0.408871974787417	0	0	239.0	1
65.3740234375	0.2	SCRAMBLED	0	0.337707885028976	0	0	247.0	1
66.41357421875	0.2	FACES	1	0.574449833064136	0	0	255.0	1
67.91357421875	0.2	FACES	1	0.49811965110257	0	0	262.0	1
69.34375	0.2	SCRAMBLED	0	0.423203315233877	0	0	270.0	1
70.7333984375	0.2	FACES	1	0.513840086279288	0	0	278.0	1
72.18359375	0.2	FACES	1	0.496724821299722	0	0	286.0	1
n/a	0.2	SCRAMBLED	0	0.446255586789903	1	0	n/a	1
n/a	0.2	FACES	1	0.685446108587712	1	0	n/a	1
76.13330078125	0.2	SCRAMBLED	0	0.73218573542772	0	0	294.0	1
77.72314453125	0.2	FACES	1	0.503991760815097	0	0	300.0	1
79.02294921875	0.2	SCRAMBLED	0	0.574785787526253	0	0	308.0	1
80.47265625	0.2	FACES	1	0.525573741098924	0	0	316.0	1
81.79248046875	0.2	FACES	1	0.506501911137093	0	0	324.0	1
83.0126953125	0.2	FACES	1	0.700411929070015	0	0	332.0	1
84.3623046875	0.2	FACES	1	0.531837344915402	0	0	340.0	1
85.7421875	0.2	FACES	1	0.504034622929339	0	0	348.0	1
87.06201171875	0.2	FACES	1	0.553888695539626	0	0	356.0	1
88.4921875	0.2	SCRAMBLED	0	0.591719944979559	0	0	364.0	1
89.85205078125	0.2	FACES	1	0.580477091557896	0	0	372.0	1
91.10205078125	0.2	SCRAMBLED	0	0.587387249245694	0	0	380.0	1
92.431640625	0.2	FACES	1	0.659963675867402	0	0	388.0	1
94.03173828125	0.2	FACES	1	0.606941127074151	0	0	394.0	1
95.33154296875	0.2	SCRAMBLED	0	0.650749528592314	0	0	402.0	1
96.931640625	0.2	SCRAMBLED	0	0.538476445004108	0	0	408.0	1
98.3212890625	0.2	SCRAMBLED	0	0.484131509419512	0	0	416.0	1
99.50146484375	0.2	SCRAMBLED	0	0.627281313416006	0	0	424.0	1
101.09130859375	0.2	FACES	1	0.674903537603768	0	0	430.0	1
102.44091796875	0.2	SCRAMBLED	0	0.625779932018304	0	0	438.0	1
103.94091796875	0.2	FACES	1	n/a	0	1	445.0	0
105.53076171875	0.2	FACES	1	0.720702612687091	0	0	451.0	1
106.94091796875	0.2	SCRAMBLED	0	0.59825188978175	0	0	459.0	1
108.21044921875	0.2	SCRAMBLED	0	0.678171924771505	0	0	467.0	1
109.6005859375	0.2	FACES	1	0.609330539045459	0	0	475.0	1
111.01025390625	0.2	FACES	1	0.592687059172931	0	0	483.0	1
112.30029296875	0.2	FACES	1	0.737269423706948	0	0	491.0	1
n/a	0.2	SCRAMBLED	0	0.621439086445207	1	0	n/a	1
n/a	0.2	SCRAMBLED	0	0.526271005076978	1	0	n/a	1
116.77978515625	0.2	FACES	1	0.662732809952558	0	0	498.0	1
118.2998046875	0.2	SCRAMBLED	0	0.659881875634255	0	0	504.0	1
119.86962890625	0.2	FACES	1	0.642666699668553	0	0	510.0	1
121.3095703125	0.2	FACES	1	0.696465294213795	0	0	518.0	1
n/a	0.2	FACES	1	0.580221729945151	1	0	n/a	1
124.25927734375	0.2	SCRAMBLED	0	0.646025338754043	0	0	525.0	1
125.75927734375	0.2	SCRAMBLED	0	0.709935468369622	0	0	532.0	1
127.42919921875	0.2	SCRAMBLED	0	0.566721974892971	0	0	538.0	1
128.80908203125	0.2	FACES	1	0.550345930468666	0	0	546.0	1
130.2587890625	0.2	FACES	1	0.750273849673249	0	0	554.0	1
131.97900390625	0.2	FACES	1	0.663150866494107	0	0	559.0	1
133.548828125	0.2	SCRAMBLED	0	0.60896470184116	0	0	565.0	1
135.04833984375	0.2	SCRAMBLED	0	0.723699942256644	0	0	572.0	1
136.478515625	0.2	SCRAMBLED	0	0.79645264687133	0	0	580.0	1
138.24853515625	0.2	SCRAMBLED	0	0.724121620948608	0	0	585.0	1
n/a	0.2	SCRAMBLED	0	0.483799177107812	1	0	n/a	1
n/a	0.2	SCRAMBLED	0	0.462989016734355	1	0	n/a	1
142.10791015625	0.2	FACES	1	0.60476089429676	0	0	592.0	1
n/a	0.2	FACES	1	0.497701292715192	1	0	n/a	1
144.76806640625	0.2	SCRAMBLED	0	0.459410633849075	0	0	600.0	1
146.0576171875	0.2	SCRAMBLED	0	0.436424164694472	0	0	608.0	1
147.40771484375	0.2	SCRAMBLED	0	0.443178569908923	0	0	616.0	1
148.62744140625	0.2	SCRAMBLED	0	0.572826807777346	0	0	624.0	1
149.95751953125	0.2	FACES	1	0.611736552540151	0	0	632.0	1
151.29736328125	0.2	SCRAMBLED	0	0.828645415308529	0	0	640.0	1
152.97705078125	0.2	FACES	1	0.772405793146845	0	0	646.0	1
154.47705078125	0.2	FACES	1	0.655046002821109	0	0	653.0	1
155.796875	0.2	SCRAMBLED	0	0.606112258293251	0	0	661.0	1
157.1669921875	0.2	FACES	1	0.601939842720185	0	0	669.0	1
158.64697265625	0.2	SCRAMBLED	0	0.50468389341313	0	0	677.0	1
160.11669921875	0.2	FACES	1	0.593454351394939	0	0	685.0	1
161.41650390625	0.2	SCRAMBLED	0	0.67723288224488	0	0	693.0	1
162.88623046875	0.2	SCRAMBLED	0	0.662028603519047	0	0	701.0	1
164.2763671875	0.2	FACES	1	0.616799715298839	0	0	709.0	1
165.7060546875	0.2	SCRAMBLED	0	0.558824177492625	0	0	717.0	1
n/a	0.2	SCRAMBLED	0	0.458614666268659	1	0	n/a	1
n/a	0.2	FACES	1	0.618420627664364	1	0	n/a	1
169.99609375	0.2	SCRAMBLED	0	0.6471934823021	0	0	724.0	1
171.505859375	0.2	FACES	1	0.813054170166652	0	0	731.0	1
173.095703125	0.2	FACES	1	0.665728630292961	0	0	737.0	1
174.42578125	0.2	SCRAMBLED	0	0.798637105491252	0	0	745.0	1
175.92529296875	0.2	FACES	1	0.610181140729765	0	0	752.0	1
177.38525390625	0.2	SCRAMBLED	0	0.523256772138666	0	0	760.0	1
178.58544921875	0.2	FACES	1	0.707141884768134	0	0	768.0	1
179.9853515625	0.2	SCRAMBLED	0	0.842921819804815	0	0	776.0	1
181.705078125	0.2	FACES	1	0.635695870959808	0	0	781.0	1
n/a	0.2	FACES	1	n/a	1	1	n/a	0
184.98486328125	0.2	FACES	1	1.03819557741463	0	0	785.0	1
186.7548828125	0.2	FACES	1	0.597187279369791	0	0	789.0	1
188.24462890625	0.2	FACES	1	0.557889058962246	0	0	797.0	1
189.50439453125	0.2	SCRAMBLED	0	0.517693148913622	0	0	805.0	1
190.7744140625	0.2	FACES	1	0.661596963913325	0	0	813.0	1
192.17431640625	0.2	FACES	1	0.547465415253555	0	0	821.0	1
193.6142578125	0.2	SCRAMBLED	0	0.533230061796985	0	0	829.0	1
194.82421875	0.2	FACES	1	0.557121766740238	0	0	837.0	1
196.244140625	0.2	FACES	1	0.400905356526891	0	0	845.0	1
197.36376953125	0.2	SCRAMBLED	0	0.534599536546011	0	0	853.0	1
198.73388671875	0.2	FACES	1	0.448478983527821	0	0	861.0	1
199.83349609375	0.2	SCRAMBLED	0	0.47519777696516	0	0	869.0	1
200.96337890625	0.2	FACES	1	0.473189898184046	0	0	877.0	1
202.4033203125	0.2	FACES	1	0.502979369739478	0	0	885.0	1
203.68359375	0.2	SCRAMBLED	0	0.47386995694751	0	0	893.0	1
204.9033203125	0.2	FACES	1	0.55770251820968	0	0	901.0	1
206.18310546875	0.2	SCRAMBLED	0	0.69268588197383	0	0	909.0	1
207.79296875	0.2	FACES	1	0.573409672168054	0	0	915.0	1
209.2431640625	0.2	FACES	1	0.84803146682907	0	0	923.0	1
210.802734375	0.2	FACES	1	0.571712392795689	0	0	929.0	1
212.3125	0.2	FACES	1	0.349870462841409	0	0	935.0	1
213.3427734375	0.2	SCRAMBLED	0	0.512656548591622	0	0	943.0	1
214.6123046875	0.2	FACES	1	0.620468350101419	0	0	951.0	1
n/a	0.2	SCRAMBLED	0	0.3883802618152	1	0	n/a	1
217.21240234375	0.2	SCRAMBLED	0	0.433238483296918	0	0	959.0	1
218.51220703125	0.2	FACES	1	0.484133320494948	0	0	967.0	1
219.85205078125	0.2	FACES	1	0.413625141829925	0	0	975.0	1
221.05224609375	0.2	FACES	1	0.398707918534456	0	0	983.0	1
222.2021484375	0.2	SCRAMBLED	0	0.437644527579778	0	0	991.0	1
223.60205078125	0.2	SCRAMBLED	0	0.336383989008027	0	0	999.0	1
224.73193359375	0.2	SCRAMBLED	0	0.390089313176759	0	0	1007.0	1
225.95166015625	0.2	SCRAMBLED	0	0.343007393111293	0	0	1015.0	1
227.2314453125	0.2	SCRAMBLED	0	0.374872960615903	0	0	1023.0	1
242.6005859375	0.2	SCRAMBLED	0	0.554689794500064	0	0	1027.0	1
243.88037109375	0.2	FACES	1	0.536823838821874	0	0	1035.0	1
245.10009765625	0.2	SCRAMBLED	0	0.651722377857368	0	0	1043.0	1
246.75	0.2	SCRAMBLED	0	0.590416574477786	0	0	1049.0	1
248.0498046875	0.2	FACES	1	0.544171069340337	0	0	1057.0	1
249.39990234375	0.2	FACES	1	0.682085658426786	0	0	1065.0	1
250.99951171875	0.2	FACES	1	0.565847829230279	0	0	1071.0	1
252.53955078125	0.2	SCRAMBLED	0	n/a	0	1	1077.0	0
253.8193359375	0.2	FACES	1	0.507387828789433	0	0	1085.0	1
255.2294921875	0.2	SCRAMBLED	0	0.472079407198635	0	0	1093.0	1
256.45947265625	0.2	SCRAMBLED	0	0.513173610580452	0	0	1101.0	1
257.63916015625	0.2	SCRAMBLED	0	0.691959640791538	0	0	1109.0	1
259.09912109375	0.2	FACES	1	0.610693976876519	0	0	1117.0	1
260.55908203125	0.2	FACES	1	0.582631063743975	0	0	1125.0	1
261.8291015625	0.2	SCRAMBLED	0	0.581417643314126	0	0	1133.0	1
263.37890625	0.2	SCRAMBLED	0	0.436310368798331	0	0	1139.0	1
264.74853515625	0.2	FACES	1	0.575120836451333	0	0	1147.0	1
266.11865234375	0.2	SCRAMBLED	0	0.531856361205882	0	0	1155.0	1
267.53857421875	0.2	FACES	1	0.556732687403382	0	0	1163.0	1
268.91845703125	0.2	FACES	1	0.537593847656808	0	0	1171.0	1
270.26806640625	0.2	SCRAMBLED	0	0.476400632790046	0	0	1179.0	1
271.43798828125	0.2	FACES	1	0.80218771855516	0	0	1187.0	1
272.93798828125	0.2	SCRAMBLED	0	0.624938989401926	0	0	1194.0	1
274.51806640625	0.2	FACES	1	0.488917577662505	0	0	1200.0	1
275.8876953125	0.2	SCRAMBLED	0	0.543384157136188	0	0	1208.0	1
277.087890625	0.2	FACES	1	0.709228243477355	0	0	1216.0	1
278.6875	0.2	SCRAMBLED	0	0.520350600024358	0	0	1222.0	1
279.87744140625	0.2	FACES	1	0.782137907948254	0	0	1230.0	1
281.4072265625	0.2	FACES	1	0.751887215891657	0	0	1236.0	1
283.12744140625	0.2	FACES	1	0.632660508809295	0	0	1241.0	1
284.5771484375	0.2	FACES	1	0.64848417527719	0	0	1249.0	1
285.97705078125	0.2	SCRAMBLED	0	0.713343006487776	0	0	1257.0	1
287.546875	0.2	FACES	1	0.624227840512958	0	0	1263.0	1
288.93701171875	0.2	SCRAMBLED	0	0.676959711725431	0	0	1271.0	1
290.5166015625	0.2	SCRAMBLED	0	0.428830024246963	0	0	1277.0	1
291.6064453125	0.2	FACES	1	0.631652041730831	0	0	1285.0	1
293.13671875	0.2	FACES	1	1.03339622795284	0	0	1291.0	1
294.88623046875	0.2	FACES	1	0.771160678899832	0	0	1295.0	1
296.38623046875	0.2	SCRAMBLED	0	0.880932063850196	0	0	1302.0	1
297.9560546875	0.2	SCRAMBLED	0	0.870696168277846	0	0	1308.0	1
299.77587890625	0.2	SCRAMBLED	0	0.642593351120013	0	0	1313.0	1
301.095703125	0.2	FACES	1	0.787375839471224	0	0	1321.0	1
302.69580078125	0.2	SCRAMBLED	0	0.818056661904848	0	0	1327.0	1
304.44580078125	0.2	FACES	1	0.677935277602955	0	0	1332.0	1
305.775390625	0.2	FACES	1	0.609598578185341	0	0	1340.0	1
307.29541015625	0.2	SCRAMBLED	0	0.598616519602729	0	0	1346.0	1
308.59521484375	0.2	SCRAMBLED	0	0.69241120222523	0	0	1354.0	1
310.2451171875	0.2	SCRAMBLED	0	0.548196485970493	0	0	1360.0	1
311.68505859375	0.2	SCRAMBLED	0	0.663041900131702	0	0	1368.0	1
313.0849609375	0.2	SCRAMBLED	0	0.582861070303352	0	0	1376.0	1
314.35498046875	0.2	FACES	1	0.577661473207172	0	0	1384.0	1
315.78466796875	0.2	FACES	1	0.603577356609094	0	0	1392.0	1
317.32470703125	0.2	SCRAMBLED	0	0.583005352632881	0	0	1398.0	1
318.6044921875	0.2	FACES	1	0.89265605960145	0	0	1406.0	1
320.154296875	0.2	FACES	1	0.971943425630798	0	0	1412.0	1
321.89453125	0.2	FACES	1	n/a	0	1	1417.0	0
n/a	0.2	FACES	1	0.587086912596533	1	0	n/a	1
n/a	0.2	SCRAMBLED	0	0.566965866362352	1	0	n/a	1
326.59375	0.2	FACES	1	0.863127382884613	0	0	1423.0	1
328.24365234375	0.2	FACES	1	n/a	0	1	1429.0	0
330.0439453125	0.2	FACES	1	0.580690798439718	0	0	1431.0	1
331.36376953125	0.2	FACES	1	0.53758207566716	0	0	1439.0	1
332.5634765625	0.2	SCRAMBLED	0	0.547355845199945	0	0	1447.0	1
334.05322265625	0.2	SCRAMBLED	0	0.67212564998772	0	0	1455.0	1
335.68310546875	0.2	FACES	1	0.553975023461135	0	0	1461.0	1
336.97314453125	0.2	FACES	1	0.697829335736969	0	0	1469.0	1
338.373046875	0.2	SCRAMBLED	0	0.687615474913855	0	0	1477.0	1
339.953125	0.2	SCRAMBLED	0	0.524403484629602	0	0	1483.0	1
341.35302734375	0.2	FACES	1	0.648180820169728	0	0	1491.0	1
342.892578125	0.2	SCRAMBLED	0	0.713079193189969	0	0	1497.0	1
344.5625	0.2	FACES	1	0.746931208419028	0	0	1503.0	1
346.13232421875	0.2	FACES	1	0.618656671140798	0	0	1509.0	1
347.46240234375	0.2	FACES	1	0.822420447764216	0	0	1517.0	1
349.14208984375	0.2	SCRAMBLED	0	0.576063802974204	0	0	1523.0	1
350.60205078125	0.2	FACES	1	0.539113943498705	0	0	1531.0	1
352.001953125	0.2	FACES	1	0.653915288161897	0	0	1539.0	1
353.412109375	0.2	SCRAMBLED	0	0.507796528108429	0	0	1547.0	1
354.78173828125	0.2	SCRAMBLED	0	0.5490712353253	0	0	1555.0	1
356.1318359375	0.2	SCRAMBLED	0	0.508351018986104	0	0	1563.0	1
357.32177734375	0.2	SCRAMBLED	0	0.46798728262911	0	0	1571.0	1
358.62158203125	0.2	FACES	1	0.517930701619662	0	0	1579.0	1
359.87158203125	0.2	SCRAMBLED	0	0.642888858234528	0	0	1587.0	1
361.42138671875	0.2	SCRAMBLED	0	0.429632632437006	0	0	1593.0	1
362.81103515625	0.2	SCRAMBLED	0	0.488394780601539	0	0	1601.0	1
364.1708984375	0.2	FACES	1	0.408336802045596	0	0	1609.0	1
365.26123046875	0.2	SCRAMBLED	0	0.648145504201693	0	0	1617.0	1
366.56103515625	0.2	FACES	1	0.501089814542865	0	0	1625.0	1
367.81103515625	0.2	FACES	1	0.602856850498029	0	0	1633.0	1
369.11083984375	0.2	SCRAMBLED	0	0.552431081794566	0	0	1641.0	1
370.45068359375	0.2	FACES	1	0.458593838903198	0	0	1649.0	1
371.63037109375	0.2	SCRAMBLED	0	0.421413972868322	0	0	1657.0	1
372.810546875	0.2	FACES	1	0.560206933460449	0	0	1665.0	1
374.2705078125	0.2	SCRAMBLED	0	0.465439703418269	0	0	1673.0	1
375.5703125	0.2	FACES	1	0.496713351156359	0	0	1681.0	1
n/a	0.2	SCRAMBLED	0	0.464664865049599	1	0	n/a	1
n/a	0.2	FACES	1	0.528551148840506	1	0	n/a	1
379.52001953125	0.2	FACES	1	0.503366336155523	0	0	1689.0	1
380.73974609375	0.2	FACES	1	0.61116244167988	0	0	1697.0	1
382.03955078125	0.2	SCRAMBLED	0	0.542092558623608	0	0	1705.0	1
383.53955078125	0.2	SCRAMBLED	0	0.429838189480051	0	0	1712.0	1
384.76953125	0.2	SCRAMBLED	0	0.537679873732031	0	0	1720.0	1
386.029296875	0.2	FACES	1	0.502561615044669	0	0	1728.0	1
387.28955078125	0.2	SCRAMBLED	0	0.50735734235559	0	0	1736.0	1
388.4892578125	0.2	SCRAMBLED	0	0.552000347726334	0	0	1744.0	1
389.92919921875	0.2	SCRAMBLED	0	0.394074282459769	0	0	1752.0	1
391.12890625	0.2	FACES	1	0.493872679597644	0	0	1760.0	1
392.39892578125	0.2	SCRAMBLED	0	0.563775657276892	0	0	1768.0	1
393.8486328125	0.2	FACES	1	0.496591405421441	0	0	1776.0	1
395.21875	0.2	SCRAMBLED	0	0.54639627715369	0	0	1784.0	1
n/a	0.2	SCRAMBLED	0	0.601906337827586	1	0	n/a	1
n/a	0.2	SCRAMBLED	0	0.599081362254765	1	0	n/a	1
399.23828125	0.2	SCRAMBLED	0	0.464861366715922	0	0	1791.0	1
400.3681640625	0.2	FACES	1	0.829621886723999	0	0	1799.0	1
402.13818359375	0.2	SCRAMBLED	0	0.694276006060136	0	0	1804.0	1
403.73828125	0.2	FACES	1	0.552938182869639	0	0	1810.0	1
405.06787109375	0.2	FACES	1	0.589084226771774	0	0	1818.0	1
406.587890625	0.2	FACES	1	0.449045246395144	0	0	1824.0	1
407.98779296875	0.2	SCRAMBLED	0	0.498649088772709	0	0	1832.0	1
409.37744140625	0.2	SCRAMBLED	0	0.423591790878618	0	0	1840.0	1
410.70751953125	0.2	SCRAMBLED	0	0.348395342035019	0	0	1848.0	1
412.02734375	0.2	SCRAMBLED	0	0.44919556564264	0	0	1856.0	1
413.12744140625	0.2	FACES	1	0.63308701703545	0	0	1864.0	1
414.4970703125	0.2	SCRAMBLED	0	0.541872211132613	0	0	1872.0	1
415.7470703125	0.2	FACES	1	0.700756637062568	0	0	1880.0	1
417.296875	0.2	SCRAMBLED	0	0.563587305448891	0	0	1886.0	1
418.76708984375	0.2	SCRAMBLED	0	0.54835254028967	0	0	1894.0	1
419.966796875	0.2	FACES	1	0.712126869445001	0	0	1902.0	1
421.5166015625	0.2	FACES	1	0.619097667968617	0	0	1908.0	1
422.86669921875	0.2	FACES	1	0.717826021469136	0	0	1916.0	1
424.5166015625	0.2	SCRAMBLED	0	0.584594269335412	0	0	1922.0	1
425.90625	0.2	FACES	1	0.682392333839289	0	0	1930.0	1
427.33642578125	0.2	SCRAMBLED	0	0.612253614528981	0	0	1938.0	1
428.826171875	0.2	FACES	1	0.55793916537823	0	0	1946.0	1
430.1259765625	0.2	SCRAMBLED	0	0.562933809123024	0	0	1954.0	1
431.55615234375	0.2	FACES	1	0.598760500085973	0	0	1962.0	1
433.095703125	0.2	FACES	1	0.867518033027409	0	0	1968.0	1
434.69580078125	0.2	SCRAMBLED	0	0.731289555015792	0	0	1974.0	1
436.095703125	0.2	FACES	1	0.851581476201318	0	0	1982.0	1
437.845703125	0.2	FACES	1	0.69373570193784	0	0	1987.0	1
439.49560546875	0.2	SCRAMBLED	0	0.658366005634434	0	0	1993.0	1
441.0654296875	0.2	FACES	1	0.483395005476723	0	0	1999.0	1
442.365234375	0.2	FACES	1	0.783327784399717	0	0	2007.0	1
443.80517578125	0.2	FACES	1	0.912100065530922	0	0	2015.0	1
445.375	0.2	SCRAMBLED	0	0.577862804408142	0	0	2021.0	1
446.73486328125	0.2	FACES	1	0.648824355581382	0	0	2029.0	1
448.1748046875	0.2	SCRAMBLED	0	0.85354649286819	0	0	2037.0	1
449.87451171875	0.2	FACES	1	0.52334702405642	0	0	2042.0	1
451.0546875	0.2	SCRAMBLED	0	0.897110399224402	0	0	2050.0	1
452.92431640625	0.2	SCRAMBLED	0	0.558020965610922	0	0	2055.0	1
454.4443359375	0.2	SCRAMBLED	0	0.538765613355281	0	0	2061.0	1
466.353515625	0.2	SCRAMBLED	0	0.717282397042709	0	0	2065.0	1
467.79345703125	0.2	FACES	1	0.557094298765151	0	0	2073.0	1
469.3232421875	0.2	FACES	1	0.645011740295558	0	0	2079.0	1
470.79296875	0.2	SCRAMBLED	0	0.621700484975918	0	0	2087.0	1
n/a	0.2	FACES	1	0.712383136595236	1	0	n/a	1
473.47265625	0.2	FACES	1	0.537392516455839	0	0	2095.0	1
474.8427734375	0.2	SCRAMBLED	0	0.549296714196316	0	0	2103.0	1
476.2724609375	0.2	FACES	1	0.444004722076897	0	0	2111.0	1
477.58251953125	0.2	SCRAMBLED	0	0.553777616256866	0	0	2119.0	1
479.0625	0.2	SCRAMBLED	0	0.488655575440589	0	0	2127.0	1
480.412109375	0.2	FACES	1	0.573495094551618	0	0	2135.0	1
481.7822265625	0.2	FACES	1	0.954110672998468	0	0	2143.0	1
483.5322265625	0.2	SCRAMBLED	0	0.513063134989352	0	0	2148.0	1
484.90185546875	0.2	SCRAMBLED	0	0.499742374543075	0	0	2156.0	1
486.2216796875	0.2	SCRAMBLED	0	0.508743116782171	0	0	2164.0	1
487.53173828125	0.2	SCRAMBLED	0	0.538546775093891	0	0	2172.0	1
488.9013671875	0.2	FACES	1	0.88830404573082	0	0	2180.0	1
490.70166015625	0.2	SCRAMBLED	0	0.508109844129649	0	0	2185.0	1
491.87158203125	0.2	SCRAMBLED	0	0.557906264177291	0	0	2193.0	1
493.37109375	0.2	SCRAMBLED	0	0.533785458212606	0	0	2200.0	1
494.7109375	0.2	FACES	1	0.604569825855833	0	0	2208.0	1
495.9912109375	0.2	SCRAMBLED	0	0.712366836918136	0	0	2216.0	1
497.380859375	0.2	SCRAMBLED	0	0.647265321621489	0	0	2224.0	1
498.880859375	0.2	FACES	1	0.582798890052345	0	0	2231.0	1
500.41064453125	0.2	FACES	1	0.594217719620701	0	0	2237.0	1
501.86083984375	0.2	FACES	1	0.562741835144607	0	0	2245.0	1
503.400390625	0.2	SCRAMBLED	0	0.488239631820761	0	0	2251.0	1
504.55029296875	0.2	SCRAMBLED	0	0.777313203433096	0	0	2259.0	1
506.18017578125	0.2	FACES	1	0.67311902477195	0	0	2265.0	1
507.7001953125	0.2	FACES	1	0.4840110729142	0	0	2271.0	1
509.0	0.2	SCRAMBLED	0	0.848775818764352	0	0	2279.0	1
510.58984375	0.2	SCRAMBLED	0	0.621577030011849	0	0	2285.0	1
512.06982421875	0.2	SCRAMBLED	0	0.608363123005802	0	0	2293.0	1
513.58984375	0.2	FACES	1	0.613128363883334	0	0	2299.0	1
514.90966796875	0.2	SCRAMBLED	0	0.788063444381351	0	0	2307.0	1
516.45947265625	0.2	SCRAMBLED	0	0.586858415266761	0	0	2313.0	1
517.78955078125	0.2	SCRAMBLED	0	0.542601772620401	0	0	2321.0	1
519.13916015625	0.2	SCRAMBLED	0	0.658505458430227	0	0	2329.0	1
520.50927734375	0.2	FACES	1	0.651957213950482	0	0	2337.0	1
522.00927734375	0.2	FACES	1	0.422102483315939	0	0	2344.0	1
523.37890625	0.2	SCRAMBLED	0	0.45373351657372	0	0	2352.0	1
524.61865234375	0.2	FACES	1	0.669642665794072	0	0	2360.0	1
525.96875	0.2	SCRAMBLED	0	0.62168961852376	0	0	2368.0	1
527.3486328125	0.2	FACES	1	1.00149262786726	0	0	2376.0	1
529.28857421875	0.2	SCRAMBLED	0	0.493237294024311	0	0	2380.0	1
530.6884765625	0.2	SCRAMBLED	0	0.578774077113849	0	0	2388.0	1
532.16845703125	0.2	SCRAMBLED	0	0.46881735879424	0	0	2396.0	1
533.30810546875	0.2	FACES	1	0.602593942737712	0	0	2404.0	1
534.81787109375	0.2	FACES	1	0.552516504178129	0	0	2410.0	1
536.22802734375	0.2	FACES	1	0.45329161420841	0	0	2418.0	1
537.3876953125	0.2	FACES	1	0.571712996487349	0	0	2426.0	1
538.6376953125	0.2	FACES	1	0.588006938833132	0	0	2434.0	1
539.95751953125	0.2	FACES	1	0.477863377915128	0	0	2442.0	1
541.32763671875	0.2	FACES	1	0.377601647353913	0	0	2450.0	1
542.52734375	0.2	FACES	1	0.488526989096499	0	0	2458.0	1
543.74755859375	0.2	FACES	1	0.506312351925772	0	0	2466.0	1
545.12744140625	0.2	FACES	1	0.398202930380194	0	0	2474.0	1
546.4970703125	0.2	SCRAMBLED	0	0.378019703895461	0	0	2482.0	1
547.81689453125	0.2	FACES	1	0.589014500374105	0	0	2490.0	1
549.06689453125	0.2	SCRAMBLED	0	0.817579745417333	0	0	2498.0	1
550.73681640625	0.2	FACES	1	0.462473765820505	0	0	2504.0	1
552.15673828125	0.2	FACES	1	0.523282127192033	0	0	2512.0	1
553.58642578125	0.2	FACES	1	0.411916090467457	0	0	2520.0	1
554.83642578125	0.2	SCRAMBLED	0	n/a	0	1	2528.0	0
556.03662109375	0.2	FACES	1	0.77373361316495	0	0	2536.0	1
557.7763671875	0.2	FACES	1	0.703515508388591	0	0	2541.0	1
559.3564453125	0.2	FACES	1	0.618451717789867	0	0	2547.0	1
560.6259765625	0.2	FACES	1	0.862050698637177	0	0	2555.0	1
562.17578125	0.2	FACES	1	0.667025058339277	0	0	2561.0	1
563.6259765625	0.2	SCRAMBLED	0	0.594173951968514	0	0	2569.0	1
564.8759765625	0.2	FACES	1	0.791539803360138	0	0	2577.0	1
566.36572265625	0.2	FACES	1	0.65737263084975	0	0	2585.0	1
567.8857421875	0.2	SCRAMBLED	0	0.568921827652957	0	0	2591.0	1
569.16552734375	0.2	SCRAMBLED	0	0.736028535301557	0	0	2599.0	1
570.54541015625	0.2	SCRAMBLED	0	0.697968184840647	0	0	2607.0	1
572.13525390625	0.2	SCRAMBLED	0	0.623727681893797	0	0	2613.0	1
573.56494140625	0.2	SCRAMBLED	0	0.547526086275866	0	0	2621.0	1
574.9052734375	0.2	FACES	1	0.488299397304218	0	0	2629.0	1
576.3046875	0.2	FACES	1	0.633186324328562	0	0	2637.0	1
577.8349609375	0.2	SCRAMBLED	0	0.659962166638252	0	0	2643.0	1
579.40478515625	0.2	FACES	1	0.493108405834391	0	0	2649.0	1
580.8046875	0.2	SCRAMBLED	0	0.398544016222331	0	0	2657.0	1
582.07470703125	0.2	SCRAMBLED	0	0.539472536402172	0	0	2665.0	1
583.42431640625	0.2	FACES	1	0.573276256289319	0	0	2673.0	1
584.9140625	0.2	SCRAMBLED	0	0.428057298799104	0	0	2681.0	1
586.14404296875	0.2	SCRAMBLED	0	0.469958638059325	0	0	2689.0	1
587.333984375	0.2	SCRAMBLED	0	0.537798197316079	0	0	2697.0	1
588.7138671875	0.2	FACES	1	0.783528210063196	0	0	2705.0	1
590.4638671875	0.2	SCRAMBLED	0	0.728418698869064	0	0	2710.0	1
592.15380859375	0.2	FACES	1	0.503052416442188	0	0	2716.0	1
593.4833984375	0.2	SCRAMBLED	0	0.454104787004326	0	0	2724.0	1
594.70361328125	0.2	FACES	1	0.701773857671469	0	0	2732.0	1
596.103515625	0.2	FACES	1	0.712677738171806	0	0	2740.0	1
597.533203125	0.2	SCRAMBLED	0	0.577458934622882	0	0	2748.0	1
598.97314453125	0.2	FACES	1	0.633640602375635	0	0	2756.0	1
600.2529296875	0.2	FACES	1	0.701082026918812	0	0	2764.0	1
601.82275390625	0.2	SCRAMBLED	0	0.549998204016447	0	0	2770.0	1
603.1728515625	0.2	SCRAMBLED	0	0.559754164642982	0	0	2778.0	1
n/a	0.2	SCRAMBLED	0	0.379553080955702	1	0	n/a	1
605.94287109375	0.2	FACES	1	0.593336329656267	0	0	2785.0	1
607.46240234375	0.2	FACES	1	0.608196202235376	0	0	2791.0	1
608.9326171875	0.2	FACES	1	0.683980345003874	0	0	2799.0	1
610.5322265625	0.2	SCRAMBLED	0	0.84775376862126	0	0	2805.0	1
612.08203125	0.2	SCRAMBLED	0	0.977479580880754	0	0	2811.0	1
614.001953125	0.2	SCRAMBLED	0	0.683050961545632	0	0	2816.0	1
615.421875	0.2	SCRAMBLED	0	0.563097107743488	0	0	2824.0	1
616.931640625	0.2	SCRAMBLED	0	0.458985333007149	0	0	2830.0	1
618.0517578125	0.2	FACES	1	0.591535517148259	0	0	2838.0	1
619.421875	0.2	SCRAMBLED	0	0.48757194873815	0	0	2846.0	1
620.59130859375	0.2	FACES	1	0.627495020297829	0	0	2854.0	1
622.12158203125	0.2	SCRAMBLED	0	0.399029082548623	0	0	2860.0	1
623.271484375	0.2	FACES	1	0.433190187955915	0	0	2868.0	1
624.59130859375	0.2	FACES	1	0.497732080994865	0	0	2876.0	1
625.861328125	0.2	SCRAMBLED	0	0.497762265582423	0	0	2884.0	1
627.1611328125	0.2	SCRAMBLED	0	0.430239644497306	0	0	2892.0	1
628.53076171875	0.2	FACES	1	0.727470902812456	0	0	2900.0	1
629.99072265625	0.2	SCRAMBLED	0	0.58228243175563	0	0	2908.0	1
631.310546875	0.2	SCRAMBLED	0	n/a	0	1	2916.0	0
633.21044921875	0.2	FACES	1	0.742941711448111	0	0	2918.0	1
634.900390625	0.2	FACES	1	0.693697065665219	0	0	2924.0	1
636.5205078125	0.2	SCRAMBLED	0	0.71848646025046	0	0	2930.0	1
638.0703125	0.2	FACES	1	0.598234080875045	0	0	2936.0	1
639.4501953125	0.2	SCRAMBLED	0	0.743023813526634	0	0	2944.0	1
641.14013671875	0.2	FACES	1	0.633873627393768	0	0	2950.0	1
642.65966796875	0.2	FACES	1	0.918662798611876	0	0	2956.0	1
644.509765625	0.2	SCRAMBLED	0	0.514467322014752	0	0	2961.0	1
645.759765625	0.2	FACES	1	0.62701719827237	0	0	2969.0	1
647.109375	0.2	SCRAMBLED	0	0.67802703874986	0	0	2977.0	1
648.609375	0.2	FACES	1	n/a	0	1	2984.0	0
650.69921875	0.2	SCRAMBLED	0	0.704582835413021	0	0	2986.0	1
652.30908203125	0.2	SCRAMBLED	0	0.618467111929931	0	0	2992.0	1
653.60888671875	0.2	FACES	1	0.867092128493823	0	0	3000.0	1
655.1689453125	0.2	SCRAMBLED	0	0.742997552934867	0	0	3006.0	1
656.56884765625	0.2	FACES	1	0.71195753390657	0	0	3014.0	1
658.21875	0.2	SCRAMBLED	0	0.474703957108431	0	0	3020.0	1
659.46875	0.2	FACES	1	0.588481742399381	0	0	3028.0	1
660.7685546875	0.2	SCRAMBLED	0	0.517424506081625	0	0	3036.0	1
661.95849609375	0.2	FACES	1	0.7122180269007	0	0	3044.0	1
663.38818359375	0.2	FACES	1	0.607021719923978	0	0	3052.0	1
664.68798828125	0.2	SCRAMBLED	0	0.602794972092852	0	0	3060.0	1
666.0380859375	0.2	FACES	1	0.471470584062445	0	0	3068.0	1
667.22802734375	0.2	FACES	1	0.632486645583413	0	0	3076.0	1
668.587890625	0.2	SCRAMBLED	0	0.582291185285612	0	0	3084.0	1
670.0078125	0.2	SCRAMBLED	0	0.50420124185348	0	0	3092.0	1
671.37744140625	0.2	SCRAMBLED	0	0.468977940800869	0	0	3100.0	1
672.5576171875	0.2	SCRAMBLED	0	0.486767529472672	0	0	3108.0	1
673.697265625	0.2	FACES	1	0.652751068610087	0	0	3116.0	1
675.04736328125	0.2	FACES	1	0.5475028441424	0	0	3124.0	1
676.3974609375	0.2	SCRAMBLED	0	0.579415499604693	0	0	3132.0	1
677.93701171875	0.2	FACES	1	0.953111261295817	0	0	3138.0	1
686.62646484375	0.2	SCRAMBLED	0	0.636481273934805	0	0	3141.0	1
688.1865234375	0.2	FACES	1	0.467640159869916	0	0	3147.0	1
689.5263671875	0.2	SCRAMBLED	0	0.558551006973175	0	0	3155.0	1
690.90625	0.2	SCRAMBLED	0	0.483480126014001	0	0	3163.0	1
692.05615234375	0.2	SCRAMBLED	0	0.697427578872521	0	0	3171.0	1
693.416015625	0.2	FACES	1	0.831926178157119	0	0	3179.0	1
694.92578125	0.2	FACES	1	0.877825466072863	0	0	3185.0	1
696.765625	0.2	FACES	1	0.543725544824156	0	0	3190.0	1
698.265625	0.2	FACES	1	0.534253319323398	0	0	3197.0	1
699.49560546875	0.2	FACES	1	0.660462627102788	0	0	3205.0	1
700.865234375	0.2	FACES	1	0.561110056327379	0	0	3213.0	1
702.365234375	0.2	FACES	1	0.708929416057799	0	0	3220.0	1
703.8349609375	0.2	SCRAMBLED	0	0.637766835528964	0	0	3228.0	1
705.43505859375	0.2	FACES	1	0.802884982534124	0	0	3234.0	1
707.134765625	0.2	SCRAMBLED	0	0.637449293665668	0	0	3240.0	1
708.474609375	0.2	SCRAMBLED	0	0.743188621376248	0	0	3248.0	1
709.94482421875	0.2	FACES	1	0.716988399157344	0	0	3256.0	1
711.49462890625	0.2	FACES	1	0.578545881629907	0	0	3262.0	1
712.8544921875	0.2	SCRAMBLED	0	0.583649491736651	0	0	3270.0	1
714.2744140625	0.2	FACES	1	0.638458968128361	0	0	3278.0	1
715.62451171875	0.2	FACES	1	0.742330775390656	0	0	3286.0	1
717.14404296875	0.2	FACES	1	0.578033649174358	0	0	3292.0	1
718.59423828125	0.2	FACES	1	0.468977035263379	0	0	3300.0	1
719.9140625	0.2	SCRAMBLED	0	0.693739625934541	0	0	3308.0	1
721.513671875	0.2	SCRAMBLED	0	0.608586488955552	0	0	3314.0	1
722.98388671875	0.2	FACES	1	0.673419663266941	0	0	3322.0	1
724.36376953125	0.2	FACES	1	0.76119433169697	0	0	3330.0	1
726.03369140625	0.2	FACES	1	0.512968959074897	0	0	3336.0	1
727.3232421875	0.2	FACES	1	0.518737837497611	0	0	3344.0	1
728.72314453125	0.2	SCRAMBLED	0	0.703671260861483	0	0	3352.0	1
730.09326171875	0.2	SCRAMBLED	0	0.737396198975148	0	0	3360.0	1
731.54296875	0.2	SCRAMBLED	0	0.667301549164222	0	0	3368.0	1
733.04296875	0.2	FACES	1	0.648075475957739	0	0	3375.0	1
734.49267578125	0.2	FACES	1	0.813981742550823	0	0	3383.0	1
736.02294921875	0.2	SCRAMBLED	0	0.636687132823681	0	0	3389.0	1
737.6328125	0.2	SCRAMBLED	0	0.379483656403863	0	0	3395.0	1
738.9423828125	0.2	SCRAMBLED	0	0.353382137786866	0	0	3403.0	1
740.232421875	0.2	SCRAMBLED	0	0.364209953126192	0	0	3411.0	1
741.412109375	0.2	FACES	1	0.699043661704309	0	0	3419.0	1
742.8623046875	0.2	SCRAMBLED	0	n/a	0	1	3427.0	0
744.921875	0.2	SCRAMBLED	0	0.748206205407769	0	0	3429.0	1
746.35205078125	0.2	FACES	1	0.557410633246036	0	0	3437.0	1
747.70166015625	0.2	FACES	1	0.771154340135581	0	0	3445.0	1
749.32177734375	0.2	SCRAMBLED	0	0.6550508323553	0	0	3451.0	1
750.9013671875	0.2	SCRAMBLED	0	0.523867104504461	0	0	3457.0	1
752.1015625	0.2	FACES	1	0.857391103817463	0	0	3465.0	1
753.76123046875	0.2	FACES	1	0.827406337978573	0	0	3471.0	1
755.34130859375	0.2	FACES	1	0.712295601290862	0	0	3477.0	1
756.861328125	0.2	FACES	1	0.732354165427751	0	0	3483.0	1
758.53076171875	0.2	SCRAMBLED	0	0.522814266081696	0	0	3489.0	1
759.78076171875	0.2	FACES	1	0.806663489235689	0	0	3497.0	1
761.5107421875	0.2	FACES	1	0.558434494464564	0	0	3502.0	1
763.03076171875	0.2	FACES	1	0.573214377885051	0	0	3508.0	1
764.50048828125	0.2	SCRAMBLED	0	0.643032536872852	0	0	3516.0	1
766.0205078125	0.2	FACES	1	0.668904954468417	0	0	3522.0	1
767.4501953125	0.2	SCRAMBLED	0	0.69841974627434	0	0	3530.0	1
768.9404296875	0.2	SCRAMBLED	0	0.843482649446742	0	0	3538.0	1
770.43994140625	0.2	FACES	1	0.631009411857121	0	0	3546.0	1
771.7998046875	0.2	FACES	1	0.658075026207371	0	0	3554.0	1
773.36962890625	0.2	FACES	1	0.554667156058713	0	0	3560.0	1
774.85986328125	0.2	SCRAMBLED	0	0.562716781936615	0	0	3568.0	1
776.06982421875	0.2	FACES	1	0.642677867966086	0	0	3576.0	1
777.62939453125	0.2	FACES	1	0.512182952408693	0	0	3582.0	1
778.939453125	0.2	SCRAMBLED	0	0.678191846599475	0	0	3590.0	1
780.29931640625	0.2	FACES	1	0.760999942951457	0	0	3598.0	1
781.80908203125	0.2	SCRAMBLED	0	0.667888639396551	0	0	3604.0	1
783.17919921875	0.2	FACES	1	0.711683156004256	0	0	3612.0	1
784.67919921875	0.2	SCRAMBLED	0	0.514489960454739	0	0	3619.0	1
786.1689453125	0.2	SCRAMBLED	0	0.858350068172513	0	0	3627.0	1
787.6787109375	0.2	FACES	1	0.641122456156154	0	0	3633.0	1
789.0888671875	0.2	SCRAMBLED	0	0.677906602244548	0	0	3641.0	1
790.6484375	0.2	SCRAMBLED	0	0.493688553611719	0	0	3647.0	1
791.8486328125	0.2	FACES	1	0.651480901155082	0	0	3655.0	1
793.30810546875	0.2	SCRAMBLED	0	0.748416591985006	0	0	3663.0	1
794.76806640625	0.2	FACES	1	0.752151632879759	0	0	3671.0	1
796.2080078125	0.2	SCRAMBLED	0	0.61293065483369	0	0	3679.0	1
797.578125	0.2	FACES	1	0.611836161679093	0	0	3687.0	1
799.02783203125	0.2	FACES	1	0.698636169769088	0	0	3695.0	1
800.3779296875	0.2	SCRAMBLED	0	0.627817089849486	0	0	3703.0	1
801.7978515625	0.2	FACES	1	0.676343342442124	0	0	3711.0	1
803.2275390625	0.2	SCRAMBLED	0	0.578139898923837	0	0	3719.0	1
804.49755859375	0.2	SCRAMBLED	0	0.622980915190055	0	0	3727.0	1
806.04736328125	0.2	FACES	1	0.527723487442927	0	0	3733.0	1
807.3173828125	0.2	SCRAMBLED	0	0.622651299491736	0	0	3741.0	1
808.8671875	0.2	SCRAMBLED	0	0.482432117125427	0	0	3747.0	1
810.21728515625	0.2	SCRAMBLED	0	0.489179881730706	0	0	3755.0	1
811.466796875	0.2	SCRAMBLED	0	0.647751293484362	0	0	3763.0	1
812.9169921875	0.2	FACES	1	0.613877243506977	0	0	3771.0	1
814.36669921875	0.2	SCRAMBLED	0	0.673729055291915	0	0	3779.0	1
815.95654296875	0.2	SCRAMBLED	0	0.659488268609493	0	0	3785.0	1
817.50634765625	0.2	SCRAMBLED	0	0.443400124783693	0	0	3791.0	1
818.62646484375	0.2	FACES	1	0.726776355446418	0	0	3799.0	1
820.1962890625	0.2	SCRAMBLED	0	0.43394419895958	0	0	3805.0	1
821.30615234375	0.2	SCRAMBLED	0	0.522839621135063	0	0	3813.0	1
822.74609375	0.2	FACES	1	0.502651866961969	0	0	3821.0	1
823.9658203125	0.2	SCRAMBLED	0	0.577465575232054	0	0	3829.0	1
825.42578125	0.2	SCRAMBLED	0	0.483337956606192	0	0	3837.0	1
826.69580078125	0.2	SCRAMBLED	0	0.503049699829717	0	0	3845.0	1
827.8857421875	0.2	SCRAMBLED	0	0.532936969449111	0	0	3853.0	1
829.1455078125	0.2	SCRAMBLED	0	0.562713159786654	0	0	3861.0	1
830.66552734375	0.2	FACES	1	0.733486993009137	0	0	3867.0	1
n/a	0.2	SCRAMBLED	0	0.652412397534135	1	0	n/a	1
833.455078125	0.2	SCRAMBLED	0	0.626964073398085	0	0	3875.0	1
834.96533203125	0.2	FACES	1	0.758074754547124	0	0	3881.0	1
836.455078125	0.2	FACES	1	0.513863932103959	0	0	3889.0	1
837.68505859375	0.2	FACES	1	0.562785904642624	0	0	3897.0	1
839.1748046875	0.2	SCRAMBLED	0	0.493625467823222	0	0	3905.0	1
840.5048828125	0.2	FACES	1	0.458354475122178	0	0	3913.0	1
841.62451171875	0.2	SCRAMBLED	0	0.657158622121642	0	0	3921.0	1
843.12451171875	0.2	SCRAMBLED	0	0.544935644949874	0	0	3928.0	1
844.59423828125	0.2	FACES	1	0.567908229193563	0	0	3936.0	1
845.97412109375	0.2	FACES	1	0.613708511661571	0	0	3944.0	1
847.46435546875	0.2	SCRAMBLED	0	0.712447127921223	0	0	3952.0	1
848.9140625	0.2	SCRAMBLED	0	0.693116314196232	0	0	3960.0	1
850.4638671875	0.2	FACES	1	0.642718013467857	0	0	3966.0	1
852.013671875	0.2	FACES	1	0.613756203310004	0	0	3972.0	1
853.43359375	0.2	FACES	1	0.733653611932823	0	0	3980.0	1
854.90380859375	0.2	FACES	1	0.827279864555749	0	0	3988.0	1
856.63330078125	0.2	SCRAMBLED	0	0.758328305083523	0	0	3993.0	1
858.13330078125	0.2	FACES	1	0.775959424669054	0	0	4000.0	1
859.7431640625	0.2	FACES	1	0.559112742152138	0	0	4006.0	1
861.193359375	0.2	FACES	1	0.627660733684934	0	0	4014.0	1
862.7431640625	0.2	SCRAMBLED	0	0.473243626750445	0	0	4020.0	1
864.04296875	0.2	SCRAMBLED	0	0.478420585405729	0	0	4028.0	1
865.47265625	0.2	SCRAMBLED	0	0.479072270656616	0	0	4036.0	1
866.642578125	0.2	SCRAMBLED	0	0.702717427886455	0	0	4044.0	1
868.08251953125	0.2	FACES	1	0.680693847082694	0	0	4052.0	1
869.66259765625	0.2	FACES	1	0.573586553852692	0	0	4058.0	1
871.05224609375	0.2	FACES	1	0.573376469121285	0	0	4066.0	1
872.482421875	0.2	SCRAMBLED	0	0.748209223866979	0	0	4074.0	1
873.96240234375	0.2	SCRAMBLED	0	0.512658661512432	0	0	4082.0	1
875.2021484375	0.2	SCRAMBLED	0	0.738107951556231	0	0	4090.0	1
876.8818359375	0.2	SCRAMBLED	0	0.557675352079968	0	0	4096.0	1
878.35205078125	0.2	FACES	1	0.663446373609077	0	0	4104.0	1
879.671875	0.2	FACES	1	0.662385083501249	0	0	4112.0	1
881.17138671875	0.2	FACES	1	0.608093876483508	0	0	4119.0	1
882.67138671875	0.2	SCRAMBLED	0	0.603798307792204	0	0	4126.0	1
884.01123046875	0.2	SCRAMBLED	0	0.573702764516383	0	0	4134.0	1
885.34130859375	0.2	FACES	1	0.652338143449015	0	0	4142.0	1
886.84130859375	0.2	FACES	1	0.622376921588511	0	0	4149.0	1
888.43115234375	0.2	FACES	1	0.753158288884151	0	0	4155.0	1
890.0908203125	0.2	SCRAMBLED	0	0.528945661403668	0	0	4161.0	1
891.380859375	0.2	SCRAMBLED	0	0.778486176515798	0	0	4169.0	1
893.11083984375	0.2	SCRAMBLED	0	0.707590125896786	0	0	4174.0	1
894.48046875	0.2	FACES	1	0.911399481247827	0	0	4182.0	1
896.05029296875	0.2	FACES	1	0.882197401771919	0	0	4188.0	1
897.7001953125	0.2	FACES	1	0.631679811551294	0	0	4194.0	1
899.0703125	0.2	SCRAMBLED	0	0.662871960902521	0	0	4202.0	1
900.5400390625	0.2	SCRAMBLED	0	0.738629541233422	0	0	4210.0	1
902.18994140625	0.2	SCRAMBLED	0	0.539422429986189	0	0	4216.0	1
