COND	DIREC	ACC	RT	nameCOND	nameDIREC	outliers	bad_trials
0	0	1	0.759198041163472	RANDOM	NONE	0	1
1	180	1	0.579075444886257	COHERENT	LEFT	0	0
0	0	1	0.819815526045204	RANDOM	NONE	0	0
1	180	1	0.654714414902628	COHERENT	LEFT	0	0
0	0	1	0.848396372095522	RANDOM	NONE	0	0
1	180	1	0.698347534009372	COHERENT	LEFT	0	0
0	0	1	0.723150823365359	RANDOM	NONE	0	0
1	180	1	0.664885595720989	COHERENT	LEFT	0	0
1	180	1	0.834710237404579	COHERENT	LEFT	0	0
1	0	1	0.65910290046304	COHERENT	RIGHT	0	0
0	0	1	0.683390944972416	RANDOM	NONE	0	0
1	0	1	0.638165607602787	COHERENT	RIGHT	0	0
0	0	1	0.762919153345138	RANDOM	NONE	0	0
1	0	1	0.67788896307502	COHERENT	RIGHT	0	0
0	0	1	0.927622738145146	RANDOM	NONE	0	0
1	180	1	0.619398259215814	COHERENT	LEFT	0	0
1	0	1	0.659408063054798	COHERENT	RIGHT	0	0
0	0	1	0.66905524559661	RANDOM	NONE	0	0
0	0	1	0.712893013798748	RANDOM	NONE	0	0
0	0	1	0.638671797181814	RANDOM	NONE	0	0
1	0	1	0.703621323107654	COHERENT	RIGHT	0	0
1	180	1	0.648390516356812	COHERENT	LEFT	0	0
1	0	1	0.809063600592708	COHERENT	RIGHT	0	0
0	0	1	0.685068282769862	RANDOM	NONE	0	0
1	0	1	0.660835475408021	COHERENT	RIGHT	0	0
1	0	1	0.674622123593508	COHERENT	RIGHT	0	0
1	180	1	0.768387932585028	COHERENT	LEFT	0	0
1	180	1	0.724346420814982	COHERENT	LEFT	0	0
1	0	1	0.748803798867812	COHERENT	RIGHT	0	0
0	0	1	0.669958357832002	RANDOM	NONE	0	0
0	0	1	0.672418070937056	RANDOM	NONE	0	0
1	180	1	0.709437522864391	COHERENT	LEFT	0	0
1	180	1	0.754275294688341	COHERENT	LEFT	0	0
1	180	0	NaN	COHERENT	LEFT	1	0
1	180	1	0.767977427021833	COHERENT	LEFT	0	0
0	0	0	NaN	RANDOM	NONE	1	0
0	0	1	0.85815040682246	RANDOM	NONE	0	0
1	0	1	0.808336160589533	COHERENT	RIGHT	0	0
1	0	0	NaN	COHERENT	RIGHT	1	0
1	180	1	0.762870556731286	COHERENT	LEFT	0	0
1	180	0	NaN	COHERENT	LEFT	1	0
0	0	1	0.913188336329767	RANDOM	NONE	0	0
0	0	0	NaN	RANDOM	NONE	1	0
1	180	1	0.733814309016452	COHERENT	LEFT	0	0
1	0	1	0.943845253892505	COHERENT	RIGHT	0	0
1	180	1	0.744612416343443	COHERENT	LEFT	0	0
0	0	1	0.829385738794372	RANDOM	NONE	0	0
0	0	1	0.835035623431395	RANDOM	NONE	0	0
1	0	1	0.685070999350501	COHERENT	RIGHT	0	0
0	0	1	0.727877070487011	RANDOM	NONE	0	0
0	0	1	0.759620318574889	RANDOM	NONE	0	0
0	0	1	0.764105091839156	RANDOM	NONE	0	0
0	0	1	0.779172155169363	RANDOM	NONE	0	0
0	0	1	0.823912733761972	RANDOM	NONE	0	0
0	0	1	0.804817584608827	RANDOM	NONE	0	0
1	0	0	NaN	COHERENT	RIGHT	1	0
0	0	1	0.738391747869173	RANDOM	NONE	0	0
1	0	1	0.694304959753936	COHERENT	RIGHT	0	0
1	0	1	0.698046597211942	COHERENT	RIGHT	0	0
1	0	1	0.74490429787329	COHERENT	RIGHT	0	0
0	0	1	0.654654046436917	RANDOM	NONE	0	0
0	0	1	0.744417426201835	RANDOM	NONE	0	0
1	180	1	0.678319993916375	COHERENT	LEFT	0	0
1	180	1	0.644132124838507	COHERENT	LEFT	0	0
1	180	1	0.589909773294494	COHERENT	LEFT	0	0
1	0	1	0.589826162966347	COHERENT	RIGHT	0	0
0	0	1	0.629569440032355	RANDOM	NONE	0	0
0	0	1	0.769118391013762	RANDOM	NONE	0	0
0	0	1	0.698892661246646	RANDOM	NONE	0	0
0	0	1	0.70910398709384	RANDOM	NONE	0	0
0	0	1	0.614904732527066	RANDOM	NONE	0	0
0	0	1	0.66948235248492	RANDOM	NONE	0	0
0	0	1	0.664584357080457	RANDOM	NONE	0	0
1	180	1	0.744209154996497	COHERENT	LEFT	0	0
0	0	0	NaN	RANDOM	NONE	1	0
0	0	1	0.727663366124034	RANDOM	NONE	0	0
0	0	1	0.679743180473452	RANDOM	NONE	0	0
1	180	1	0.694542207820632	COHERENT	LEFT	0	0
1	0	1	0.758345034755621	COHERENT	RIGHT	0	0
1	0	1	0.790139897882909	COHERENT	RIGHT	0	0
0	0	1	0.677935748637537	RANDOM	NONE	0	0
1	180	1	0.694817789863009	COHERENT	LEFT	0	0
1	180	1	0.784657837575651	COHERENT	LEFT	0	0
1	0	1	0.679461561587232	COHERENT	RIGHT	0	0
1	180	1	0.729073875307222	COHERENT	LEFT	0	0
0	0	1	0.662949880890665	RANDOM	NONE	0	0
0	0	1	0.844579575899843	RANDOM	NONE	0	0
1	180	1	0.619625244642521	COHERENT	LEFT	0	0
0	0	1	0.629434214672074	RANDOM	NONE	0	0
0	0	1	0.704295035178802	RANDOM	NONE	0	0
0	0	1	0.758122878803988	RANDOM	NONE	0	0
0	0	1	0.8346338712945	RANDOM	NONE	0	0
0	0	1	0.764165158463584	RANDOM	NONE	0	0
1	180	1	0.678585313318763	COHERENT	LEFT	0	0
1	0	1	0.788127816944325	COHERENT	RIGHT	0	0
1	0	1	0.663137626819662	COHERENT	RIGHT	0	0
0	0	1	0.733110412715178	RANDOM	NONE	0	0
1	0	0	NaN	COHERENT	RIGHT	1	0
0	0	1	0.738599113548844	RANDOM	NONE	0	0
0	0	1	0.883337941457285	RANDOM	NONE	0	0
0	0	1	0.739099568127131	RANDOM	NONE	0	0
1	180	1	0.680083054936404	COHERENT	LEFT	0	0
0	0	1	0.807831782065477	RANDOM	NONE	0	0
1	0	1	0.743585246909788	COHERENT	RIGHT	0	0
0	0	1	0.734551407975232	RANDOM	NONE	0	0
1	0	1	0.799274552155111	COHERENT	RIGHT	0	0
1	180	1	0.843671030503174	COHERENT	LEFT	0	0
1	180	1	1.05881941015105	COHERENT	LEFT	0	0
1	180	1	0.998208263958077	COHERENT	LEFT	0	0
0	0	1	0.658142136344395	RANDOM	NONE	0	0
1	0	1	0.729137564034318	COHERENT	RIGHT	0	0
1	0	1	0.740038297757565	COHERENT	RIGHT	0	0
0	0	1	0.734892187956575	RANDOM	NONE	0	0
0	0	1	0.978584890737693	RANDOM	NONE	0	0
1	0	1	0.719549542587629	COHERENT	RIGHT	0	0
1	0	1	1.07400630488337	COHERENT	RIGHT	0	0
1	0	1	0.605112665667548	COHERENT	RIGHT	0	0
1	180	1	0.707860396716569	COHERENT	LEFT	0	0
0	0	1	0.644634692311229	RANDOM	NONE	0	0
1	180	0	NaN	COHERENT	LEFT	1	0
1	0	1	0.574328068803879	COHERENT	RIGHT	0	0
0	0	1	0.644063908472162	RANDOM	NONE	0	0
0	0	1	0.654916347419203	RANDOM	NONE	0	0
1	0	1	1.13435696114539	COHERENT	RIGHT	0	0
1	180	1	0.654389330720733	COHERENT	LEFT	0	0
0	0	1	0.714311974566954	RANDOM	NONE	0	0
0	0	1	0.820098050462548	RANDOM	NONE	0	0
0	0	1	0.724869815403508	RANDOM	NONE	0	0
0	0	1	0.659439454655512	RANDOM	NONE	0	0
1	0	1	0.699151641962089	COHERENT	RIGHT	0	0
1	180	1	0.767326051289274	COHERENT	LEFT	0	0
1	0	1	0.688126851047855	COHERENT	RIGHT	0	0
1	180	1	0.742945341182349	COHERENT	LEFT	0	0
1	0	1	0.649937156427768	COHERENT	RIGHT	0	0
1	180	1	0.614609530730377	COHERENT	LEFT	0	0
0	0	1	0.599438935485523	RANDOM	NONE	0	0
0	0	1	0.828323857498617	RANDOM	NONE	0	0
0	0	1	0.658502837919514	RANDOM	NONE	0	0
0	0	1	0.687853381899913	RANDOM	NONE	0	0
0	0	1	0.569792887872609	RANDOM	NONE	0	0
1	0	1	0.784081318739482	COHERENT	RIGHT	0	0
0	0	1	0.922429540943995	RANDOM	NONE	0	0
0	0	1	0.718879754469526	RANDOM	NONE	0	0
0	0	1	0.664938719968632	RANDOM	NONE	0	0
0	0	1	0.792808184032765	RANDOM	NONE	0	0
1	180	0	NaN	COHERENT	LEFT	1	0
0	0	1	0.839344724463444	RANDOM	NONE	0	0
0	0	1	0.738129446890525	RANDOM	NONE	0	0
0	0	1	0.670818306614819	RANDOM	NONE	0	0
0	0	1	0.748778745954041	RANDOM	NONE	0	0
0	0	1	0.689862746257859	RANDOM	NONE	0	1
1	0	1	0.698055350636423	COHERENT	RIGHT	0	1
0	0	1	0.594833123454009	RANDOM	NONE	0	1
0	0	1	0.644635899676359	RANDOM	NONE	0	0
0	0	1	0.619611359896226	RANDOM	NONE	0	0
1	0	1	0.493313286977354	COHERENT	RIGHT	0	0
0	0	1	0.637890327401692	RANDOM	NONE	0	0
1	180	1	0.598312459933368	COHERENT	LEFT	0	0
1	0	1	0.629858906824666	COHERENT	RIGHT	0	0
1	180	1	0.578659204318683	COHERENT	LEFT	0	0
0	0	1	0.589524018800148	RANDOM	NONE	0	1
0	0	1	0.729201554608153	RANDOM	NONE	0	0
0	0	1	0.653062733701518	RANDOM	NONE	0	0
1	180	0	NaN	COHERENT	LEFT	1	0
1	0	1	0.559802208761539	COHERENT	RIGHT	0	0
0	0	1	0.68862066508882	RANDOM	NONE	0	0
0	0	1	0.719256453689013	RANDOM	NONE	0	0
1	180	1	0.689217105526041	COHERENT	LEFT	0	0
1	180	1	0.830343484492914	COHERENT	LEFT	0	0
1	180	1	0.748803798865993	COHERENT	LEFT	0	0
1	180	1	0.769399406213779	COHERENT	LEFT	0	0
0	0	1	1.02937499320979	RANDOM	NONE	0	0
0	0	1	0.73315750011534	RANDOM	NONE	0	0
0	0	1	0.763050454756012	RANDOM	NONE	0	0
1	180	1	0.707886355157825	COHERENT	LEFT	0	0
1	180	1	0.629619244020432	COHERENT	LEFT	0	0
0	0	1	0.629436629413249	RANDOM	NONE	0	0
0	0	1	1.12411364001309	RANDOM	NONE	0	0
1	0	1	0.650044914138562	COHERENT	RIGHT	0	0
0	0	1	0.643848393050575	RANDOM	NONE	0	0
1	0	1	0.914604882360436	COHERENT	RIGHT	0	0
0	0	1	0.664164796249679	RANDOM	NONE	0	0
0	0	1	0.648294228652958	RANDOM	NONE	0	0
0	0	1	0.794065357313229	RANDOM	NONE	0	0
1	0	1	0.584860856724845	COHERENT	RIGHT	0	0
1	0	0	NaN	COHERENT	RIGHT	1	0
1	180	1	0.723546840494237	COHERENT	LEFT	0	0
1	0	1	0.674313640738546	COHERENT	RIGHT	0	0
1	0	1	0.678075501629792	COHERENT	RIGHT	0	0
0	0	1	0.669904328056873	RANDOM	NONE	0	0
1	0	0	NaN	COHERENT	RIGHT	1	0
1	180	1	0.699065918743145	COHERENT	LEFT	0	0
0	0	1	0.710288114536525	RANDOM	NONE	0	0
0	0	1	0.673809865897056	RANDOM	NONE	0	0
1	0	0	NaN	COHERENT	RIGHT	1	0
1	0	0	NaN	COHERENT	RIGHT	1	0
1	180	1	0.668571694190177	COHERENT	LEFT	0	0
0	0	1	0.66432205610181	RANDOM	NONE	0	0
1	0	0	NaN	COHERENT	RIGHT	1	1
0	0	1	0.782672620607627	RANDOM	NONE	0	0
0	0	1	0.710807585175644	RANDOM	NONE	0	1
1	0	1	0.788618612565188	COHERENT	RIGHT	0	0
0	0	1	0.734361850994901	RANDOM	NONE	0	0
1	0	1	0.649023781556025	COHERENT	RIGHT	0	0
0	0	1	0.828688181183679	RANDOM	NONE	0	0
0	0	1	0.719813352781784	RANDOM	NONE	0	0
0	0	1	0.644577644110541	RANDOM	NONE	0	0
0	0	1	0.599420221260516	RANDOM	NONE	0	0
1	0	1	1.14386831464435	COHERENT	RIGHT	0	0
1	0	1	0.664679739256826	COHERENT	RIGHT	0	0
1	180	1	0.719822106206266	COHERENT	LEFT	0	0
0	0	1	0.604591383973457	RANDOM	NONE	0	0
1	180	1	0.614393713469326	COHERENT	LEFT	0	0
0	0	1	0.608310383257049	RANDOM	NONE	0	0
0	0	1	0.688142546849122	RANDOM	NONE	0	0
1	180	1	0.554971524194116	COHERENT	LEFT	0	0
1	0	1	0.598780315533077	COHERENT	RIGHT	0	0
0	0	0	NaN	RANDOM	NONE	1	1
1	0	1	0.658537851631991	COHERENT	RIGHT	0	1
0	0	1	0.608143464451132	RANDOM	NONE	0	0
1	180	1	0.547891208781948	COHERENT	LEFT	0	0
0	0	1	0.557891245000064	RANDOM	NONE	0	0
1	180	1	0.61469978158857	COHERENT	LEFT	0	0
0	0	1	0.638598449495476	RANDOM	NONE	0	0
0	0	1	0.629295065362385	RANDOM	NONE	0	0
0	0	1	0.638014988282521	RANDOM	NONE	0	0
1	0	1	0.713097964737244	COHERENT	RIGHT	0	0
1	180	1	0.712832041652291	COHERENT	LEFT	0	0
0	0	1	0.677633906310803	RANDOM	NONE	0	0
1	180	1	0.713616228007595	COHERENT	LEFT	0	0
1	0	1	0.514283782496932	COHERENT	RIGHT	0	0
1	180	1	0.619133543495991	COHERENT	LEFT	0	0
0	0	1	0.735100157318811	RANDOM	NONE	0	0
0	0	1	0.73778383743047	RANDOM	NONE	0	0
0	0	1	0.674592241204664	RANDOM	NONE	0	0
1	0	1	0.87912844839957	COHERENT	RIGHT	0	0
0	0	1	0.784146516678447	RANDOM	NONE	0	0
1	180	1	0.768088504999469	COHERENT	LEFT	0	0
1	180	1	0.574833051010501	COHERENT	LEFT	0	0
0	0	1	1.05738414989537	RANDOM	NONE	0	0
1	180	1	0.78937955706715	COHERENT	LEFT	0	0
1	180	1	0.665277990745381	COHERENT	LEFT	0	0
0	0	1	0.828062462041999	RANDOM	NONE	0	0
1	180	1	0.708635225964827	COHERENT	LEFT	0	0
0	0	1	0.853789690758276	RANDOM	NONE	0	0
0	0	1	0.648562566482724	RANDOM	NONE	0	0
0	0	1	0.688316709871287	RANDOM	NONE	0	0
1	180	1	0.739064252571552	COHERENT	LEFT	0	0
0	0	1	1.17957535614551	RANDOM	NONE	0	0
1	180	0	NaN	COHERENT	LEFT	1	0
0	0	1	0.603600737460511	RANDOM	NONE	0	0
0	0	1	0.514089697880991	RANDOM	NONE	0	0
1	180	1	0.684098765224917	COHERENT	LEFT	0	0
1	180	0	NaN	COHERENT	LEFT	1	0
0	0	1	0.618842265652347	RANDOM	NONE	0	0
1	180	1	0.799647629268293	COHERENT	LEFT	0	0
1	0	1	1.1292890285149	COHERENT	RIGHT	0	0
1	180	1	0.687891715879232	COHERENT	LEFT	0	0
1	0	1	0.800014669533994	COHERENT	RIGHT	0	0
0	0	1	0.707859793034004	RANDOM	NONE	0	0
0	0	1	0.814621423320204	RANDOM	NONE	0	0
1	0	0	NaN	COHERENT	RIGHT	1	0
1	180	1	0.684010023582232	COHERENT	LEFT	0	0
1	180	1	0.830051904806169	COHERENT	LEFT	0	1
1	0	1	0.604800862543925	COHERENT	RIGHT	0	0
0	0	1	0.569525757411611	RANDOM	NONE	0	0
0	0	1	0.928252683075698	RANDOM	NONE	0	0
0	0	1	0.648901535412733	RANDOM	NONE	0	0
1	180	1	0.799096465187176	COHERENT	LEFT	0	0
0	0	1	0.910857208054949	RANDOM	NONE	0	0
0	0	1	0.638796458060824	RANDOM	NONE	0	0
0	0	1	0.629378072000691	RANDOM	NONE	0	0
1	180	1	0.80334127380047	COHERENT	LEFT	0	0
0	0	1	0.693115700993076	RANDOM	NONE	0	0
0	0	0	NaN	RANDOM	NONE	1	0
0	0	1	0.939346595881943	RANDOM	NONE	0	0
0	0	1	0.629206323716062	RANDOM	NONE	0	0
1	0	1	0.78027569070764	COHERENT	RIGHT	0	0
0	0	0	NaN	RANDOM	NONE	1	0
0	0	1	0.718619868228416	RANDOM	NONE	0	0
1	0	1	0.834493212772941	COHERENT	RIGHT	0	0
0	0	1	0.723382940115698	RANDOM	NONE	0	0
0	0	1	0.894359110265214	RANDOM	NONE	0	0
0	0	1	0.594691559403145	RANDOM	NONE	0	0
1	0	0	NaN	COHERENT	RIGHT	1	0
1	180	1	0.659619654525159	COHERENT	LEFT	0	0
1	0	1	0.688494796842861	COHERENT	RIGHT	0	0
0	0	1	0.709356025436136	RANDOM	NONE	0	0
0	0	1	1.0380677503199	RANDOM	NONE	0	0
1	0	1	0.784952737529238	COHERENT	RIGHT	0	0
1	0	1	0.892599067668925	COHERENT	RIGHT	0	0
0	0	1	0.814560753009573	RANDOM	NONE	0	0
0	0	1	0.788998933894618	RANDOM	NONE	0	0
1	0	1	0.634058137246029	COHERENT	RIGHT	0	0
1	180	1	0.694984406825824	COHERENT	LEFT	0	0
1	0	1	0.863782482760143	COHERENT	RIGHT	0	0
1	0	1	0.903589146717422	COHERENT	RIGHT	0	0
1	0	1	0.738302100704459	COHERENT	RIGHT	0	0
1	0	1	0.608947874246951	COHERENT	RIGHT	0	0
0	0	0	NaN	RANDOM	NONE	1	0
1	180	1	0.689304036117392	COHERENT	LEFT	0	1
0	0	0	NaN	RANDOM	NONE	1	1
0	0	0	NaN	RANDOM	NONE	1	1
1	0	1	0.649980621721625	COHERENT	RIGHT	0	1
0	0	1	0.834386360591452	RANDOM	NONE	0	0
0	0	0	NaN	RANDOM	NONE	1	0
0	0	1	0.724341893179371	RANDOM	NONE	0	0
0	0	1	0.603190533740417	RANDOM	NONE	0	0
0	0	1	0.554936510485277	RANDOM	NONE	0	0
0	0	1	0.652595481780736	RANDOM	NONE	0	0
1	0	1	0.624830817378097	COHERENT	RIGHT	0	0
0	0	0	NaN	RANDOM	NONE	1	0
1	180	1	0.459289016442199	COHERENT	LEFT	0	0
1	0	1	0.655105904399534	COHERENT	RIGHT	0	0
0	0	1	0.734825178962637	RANDOM	NONE	0	0
1	180	1	0.55974485871775	COHERENT	LEFT	0	0
1	0	0	NaN	COHERENT	RIGHT	1	0
0	0	1	0.624126317390619	RANDOM	NONE	0	0
0	0	1	0.749316628975066	RANDOM	NONE	0	0
1	0	1	0.727881899962085	COHERENT	RIGHT	0	0
0	0	1	0.757772439861583	RANDOM	NONE	0	0
0	0	1	0.729916619075084	RANDOM	NONE	0	0
1	180	1	0.44435838584468	COHERENT	LEFT	0	0
1	180	1	0.638279704002343	COHERENT	LEFT	0	0
1	180	1	0.67508364051173	COHERENT	LEFT	0	0
0	0	1	0.813774151913094	RANDOM	NONE	0	0
0	0	1	0.754586494123942	RANDOM	NONE	0	0
1	0	1	0.719503964395699	COHERENT	RIGHT	0	0
0	0	0	NaN	RANDOM	NONE	1	0
1	0	1	0.509052855006303	COHERENT	RIGHT	0	0
0	0	1	0.738863225582463	RANDOM	NONE	0	0
1	0	0	NaN	COHERENT	RIGHT	1	0
1	180	1	0.604583837910468	COHERENT	LEFT	0	0
1	0	1	0.443552466833353	COHERENT	RIGHT	0	0
1	0	1	0.424279532551736	COHERENT	RIGHT	0	0
0	0	1	0.544093730492023	RANDOM	NONE	0	0
0	0	1	0.772863952417538	RANDOM	NONE	0	0
1	0	1	0.534780083718942	COHERENT	RIGHT	0	0
1	0	1	0.622566396254115	COHERENT	RIGHT	0	0
0	0	1	0.734282768306002	RANDOM	NONE	0	0
1	0	1	0.649222695643402	COHERENT	RIGHT	0	0
1	0	1	0.632876122705056	COHERENT	RIGHT	0	0
1	0	1	0.547867665078229	COHERENT	RIGHT	0	0
0	0	1	0.578626001664816	RANDOM	NONE	0	0
1	0	1	0.494816763599374	COHERENT	RIGHT	0	0
1	0	1	0.434342955664761	COHERENT	RIGHT	0	0
0	0	1	0.673126193032658	RANDOM	NONE	0	0
1	180	1	0.380062650390755	COHERENT	LEFT	0	0
1	180	1	0.627711600522161	COHERENT	LEFT	0	0
0	0	1	0.618522312786808	RANDOM	NONE	0	0
0	0	1	0.7335658927841	RANDOM	NONE	0	0
1	180	1	0.688329387248814	COHERENT	LEFT	0	0
1	0	1	0.66786327025693	COHERENT	RIGHT	0	0
1	180	1	0.554147192808159	COHERENT	LEFT	0	0
1	0	1	0.524903501009248	COHERENT	RIGHT	0	0
0	0	1	0.66440144063381	RANDOM	NONE	0	1
1	180	1	0.504540312249446	COHERENT	LEFT	0	0
1	180	1	0.604324555355561	COHERENT	LEFT	0	0
0	0	1	0.713212362978084	RANDOM	NONE	0	0
1	180	1	0.550033987445204	COHERENT	LEFT	0	0
1	180	1	0.60795662405144	COHERENT	LEFT	0	0
0	0	1	0.532597763711237	RANDOM	NONE	0	0
0	0	0	NaN	RANDOM	NONE	1	0
0	0	1	0.678347159722762	RANDOM	NONE	0	0
1	0	1	0.598837665573228	COHERENT	RIGHT	0	0
1	180	1	0.55138110974076	COHERENT	LEFT	0	0
0	0	1	0.626793698018446	RANDOM	NONE	0	0
1	0	1	0.452720323766698	COHERENT	RIGHT	0	0
0	0	0	NaN	RANDOM	NONE	1	0
0	0	0	NaN	RANDOM	NONE	1	0
1	180	1	0.698235852349171	COHERENT	LEFT	0	0
0	0	1	0.949843464572041	RANDOM	NONE	0	0
0	0	1	0.600372835637245	RANDOM	NONE	0	0
0	0	1	0.948314029508765	RANDOM	NONE	0	0
1	180	0	NaN	COHERENT	LEFT	1	0
1	180	1	0.574106516534812	COHERENT	LEFT	0	0
1	0	0	NaN	COHERENT	RIGHT	1	0
0	0	1	0.834795055096038	RANDOM	NONE	0	0
0	0	1	0.949564864105923	RANDOM	NONE	0	0
1	180	1	0.65332292178573	COHERENT	LEFT	0	0
0	0	1	0.783116932510893	RANDOM	NONE	0	0
0	0	0	NaN	RANDOM	NONE	1	0
0	0	0	NaN	RANDOM	NONE	1	0
1	180	1	0.544594185066671	COHERENT	LEFT	0	0
0	0	1	0.814906966155831	RANDOM	NONE	0	0
1	180	1	0.632268815945281	COHERENT	LEFT	0	0
1	180	1	0.763046228963503	COHERENT	LEFT	0	0
0	0	1	0.854815652815887	RANDOM	NONE	0	0
0	0	1	0.634396200650372	RANDOM	NONE	0	0
1	180	1	0.594396357610094	COHERENT	LEFT	0	0
0	0	1	0.939332409292547	RANDOM	NONE	0	0
0	0	1	0.743731640439364	RANDOM	NONE	0	0
1	0	1	0.690342373713065	COHERENT	RIGHT	0	0
1	0	1	0.778615256076591	COHERENT	RIGHT	0	0
0	0	1	0.784529252745415	RANDOM	NONE	0	0
1	180	1	0.669267440749536	COHERENT	LEFT	0	0
1	180	1	0.874094020262419	COHERENT	LEFT	0	0
0	0	1	0.714705878799577	RANDOM	NONE	0	0
0	0	1	0.798708597794757	RANDOM	NONE	0	0
0	0	1	0.864514148557646	RANDOM	NONE	0	0
0	0	1	0.729245321745111	RANDOM	NONE	0	0
1	180	1	0.623116352973739	COHERENT	LEFT	0	0
1	0	1	0.532866705219931	COHERENT	RIGHT	0	0
0	0	1	0.729734909997205	RANDOM	NONE	0	0
0	0	1	0.89356134099944	RANDOM	NONE	0	0
0	0	1	0.849287108798308	RANDOM	NONE	0	0
1	180	1	0.644082622697169	COHERENT	LEFT	0	0
1	180	1	0.58803412508496	COHERENT	LEFT	0	0
0	0	0	NaN	RANDOM	NONE	1	0
0	0	1	0.769563004752854	RANDOM	NONE	0	0
1	0	1	0.828447009163938	COHERENT	RIGHT	0	0
0	0	1	0.719085007251124	RANDOM	NONE	0	0
1	180	1	0.550029459809593	COHERENT	LEFT	0	0
1	180	1	0.844856667150452	COHERENT	LEFT	0	0
0	0	1	0.784632180981134	RANDOM	NONE	0	0
0	0	1	0.784359013676294	RANDOM	NONE	0	0
1	180	1	0.563236570735171	COHERENT	LEFT	0	0
1	0	1	0.669021741097822	COHERENT	RIGHT	0	0
1	0	0	NaN	COHERENT	RIGHT	1	0
1	0	1	0.788631591782178	COHERENT	RIGHT	0	0
0	0	1	0.778167623910122	RANDOM	NONE	0	0
0	0	0	NaN	RANDOM	NONE	1	0
1	180	1	0.558070539344044	COHERENT	LEFT	0	0
0	0	1	0.749812254074641	RANDOM	NONE	0	0
1	180	1	0.56463832649024	COHERENT	LEFT	0	0
0	0	1	0.809583674916212	RANDOM	NONE	0	0
0	0	1	1.02326902481946	RANDOM	NONE	0	0
0	0	0	NaN	RANDOM	NONE	1	0
0	0	0	NaN	RANDOM	NONE	1	0
0	0	1	0.639622298662289	RANDOM	NONE	0	0
0	0	0	NaN	RANDOM	NONE	1	0
1	0	0	NaN	COHERENT	RIGHT	1	0
1	0	1	0.844070066057611	COHERENT	RIGHT	0	0
1	0	1	0.543824185297126	COHERENT	RIGHT	0	0
0	0	1	0.644782595045399	RANDOM	NONE	0	0
0	0	0	NaN	RANDOM	NONE	1	0
1	180	1	0.638345203788049	COHERENT	LEFT	0	0
1	180	1	0.593895601192344	COHERENT	LEFT	0	0
1	0	0	NaN	COHERENT	RIGHT	1	0
1	0	0	NaN	COHERENT	RIGHT	1	0
0	0	1	0.620586612447369	RANDOM	NONE	0	0
1	0	1	0.804297812126606	COHERENT	RIGHT	0	0
1	0	1	0.653116461635364	COHERENT	RIGHT	0	0
0	0	1	0.575013854562712	RANDOM	NONE	0	0
1	180	1	0.839819522436301	COHERENT	LEFT	0	0
0	0	1	0.693598950554588	RANDOM	NONE	0	0
0	0	1	0.589334763666557	RANDOM	NONE	0	0
1	0	1	1.0281410617863	COHERENT	RIGHT	0	0
0	0	1	0.588017523758026	RANDOM	NONE	0	0
1	0	1	0.704819637136097	COHERENT	RIGHT	0	0
1	0	1	0.649872260328266	COHERENT	RIGHT	0	0
0	0	1	0.50989952272721	RANDOM	NONE	0	0
1	0	1	0.709787056275673	COHERENT	RIGHT	0	0
1	0	1	0.520452232245589	COHERENT	RIGHT	0	0
1	0	1	0.548056014693429	COHERENT	RIGHT	0	0
0	0	1	0.54829960144707	RANDOM	NONE	0	0
1	180	1	0.499103830137756	COHERENT	LEFT	0	0
1	180	1	0.544695302247419	COHERENT	LEFT	0	0
1	0	1	0.404783536796458	COHERENT	RIGHT	0	0
1	180	1	0.469768981958623	COHERENT	LEFT	0	0
0	0	1	0.557488285499858	RANDOM	NONE	0	0
1	180	1	0.324303921417595	COHERENT	LEFT	0	0
1	0	1	0.534091279532731	COHERENT	RIGHT	0	0
1	180	1	0.393022552449111	COHERENT	LEFT	0	0
1	0	1	0.617947303158871	COHERENT	RIGHT	0	0
0	0	1	0.56776963876473	RANDOM	NONE	0	0
1	0	1	0.438573879531759	COHERENT	RIGHT	0	0
0	0	1	0.539370501795929	RANDOM	NONE	0	0
1	180	1	0.354246378195967	COHERENT	LEFT	0	0
0	0	1	0.684067977304949	RANDOM	NONE	0	0
0	0	1	0.542859497225436	RANDOM	NONE	0	0
0	0	1	0.748782669903449	RANDOM	NONE	0	0
0	0	1	0.598566913009563	RANDOM	NONE	0	0
1	0	1	0.794308642227406	COHERENT	RIGHT	0	0
0	0	1	0.869094303994643	RANDOM	NONE	0	0
1	0	1	0.529061982717394	COHERENT	RIGHT	0	0
0	0	1	0.672787224102649	RANDOM	NONE	0	0
1	0	1	0.425119257903134	COHERENT	RIGHT	0	0
1	180	1	0.393533269667387	COHERENT	LEFT	0	0
0	0	1	0.698056859851931	RANDOM	NONE	0	0
1	180	1	0.543257627254206	COHERENT	LEFT	0	0
0	0	1	0.619964817258733	RANDOM	NONE	0	0
0	0	1	0.549771384623455	RANDOM	NONE	0	0
0	0	1	0.608578419236437	RANDOM	NONE	0	0
1	180	1	0.614236151777732	COHERENT	LEFT	0	0
1	180	1	0.56328486550774	COHERENT	LEFT	0	0
1	0	0	NaN	COHERENT	RIGHT	1	0
1	0	1	0.652957994414464	COHERENT	RIGHT	0	0
0	0	1	0.554488274632604	RANDOM	NONE	0	0
0	0	1	0.708507244820794	RANDOM	NONE	0	0
0	0	1	0.704398265253985	RANDOM	NONE	0	0
0	0	1	0.544224428220332	RANDOM	NONE	0	0
1	180	1	0.680020573574438	COHERENT	LEFT	0	0
1	0	1	0.972521482119191	COHERENT	RIGHT	0	0
0	0	1	0.67852615222364	RANDOM	NONE	0	0
1	0	1	0.70951087055073	COHERENT	RIGHT	0	0
0	0	1	0.739227549267525	RANDOM	NONE	0	0
1	180	1	0.674018137102394	COHERENT	LEFT	0	0
1	180	1	0.559837222474016	COHERENT	LEFT	0	0
1	0	1	0.868689533435827	COHERENT	RIGHT	0	0
0	0	1	0.824473556800513	RANDOM	NONE	0	0
0	0	0	NaN	RANDOM	NONE	1	0
1	180	1	0.698637302641146	COHERENT	LEFT	0	0
0	0	1	0.793606556981103	RANDOM	NONE	0	0
1	180	1	0.658557773225766	COHERENT	LEFT	0	0
0	0	1	0.774499635976099	RANDOM	NONE	0	0
1	180	1	0.654314775663806	COHERENT	LEFT	0	0
1	180	0	NaN	COHERENT	LEFT	1	0
1	180	1	0.539969356970687	COHERENT	LEFT	0	0
1	0	1	0.619731493141444	COHERENT	RIGHT	0	0
1	0	0	NaN	COHERENT	RIGHT	1	0
1	180	1	0.659443076761818	COHERENT	LEFT	0	0
1	0	1	0.583113793349185	COHERENT	RIGHT	0	0
0	0	1	0.648062413747539	RANDOM	NONE	0	0
0	0	1	0.809803416130308	RANDOM	NONE	0	0
0	0	1	0.994586156062724	RANDOM	NONE	0	0
1	0	1	0.654085979182128	COHERENT	RIGHT	0	0
0	0	0	NaN	RANDOM	NONE	1	0
1	0	1	0.509033838941832	COHERENT	RIGHT	0	0
0	0	0	NaN	RANDOM	NONE	1	0
1	180	1	0.539757463655405	COHERENT	LEFT	0	0
1	180	1	0.424511951143359	COHERENT	LEFT	0	0
0	0	1	0.814274908330844	RANDOM	NONE	0	0
0	0	1	0.804065091691882	RANDOM	NONE	0	0
1	0	1	0.867732995109691	COHERENT	RIGHT	0	0
0	0	1	0.634514220997517	RANDOM	NONE	0	0
1	180	1	0.574611800584535	COHERENT	LEFT	0	0
0	0	0	NaN	RANDOM	NONE	1	0
1	0	1	0.568235381473642	COHERENT	RIGHT	0	0
1	180	1	0.653009307610773	COHERENT	LEFT	0	0
0	0	1	0.739795314682851	RANDOM	NONE	0	0
0	0	0	NaN	RANDOM	NONE	1	0
0	0	0	NaN	RANDOM	NONE	1	0
1	180	1	0.730096517101629	COHERENT	LEFT	0	0
1	0	1	0.668020831952163	COHERENT	RIGHT	0	0
0	0	1	1.11454825674082	RANDOM	NONE	0	0
0	0	0	NaN	RANDOM	NONE	1	0
1	180	1	0.664318433995504	COHERENT	LEFT	0	0
1	180	1	0.579230893683416	COHERENT	LEFT	0	0
0	0	1	0.9848722663628	RANDOM	NONE	0	0
0	0	1	0.734551709814696	RANDOM	NONE	0	0
1	0	1	0.753459414885583	COHERENT	RIGHT	0	0
0	0	0	NaN	RANDOM	NONE	1	0
0	0	1	0.859102115675341	RANDOM	NONE	0	0
1	180	1	0.574986386909586	COHERENT	LEFT	0	0
1	0	1	0.754769712417328	COHERENT	RIGHT	0	0
1	180	1	0.584570484410506	COHERENT	LEFT	0	0
1	180	1	0.648380857401207	COHERENT	LEFT	0	0
0	0	1	0.71424858768296	RANDOM	NONE	0	0
1	180	1	1.15901989382473	COHERENT	LEFT	0	0
1	180	1	0.54255342910983	COHERENT	LEFT	0	0
0	0	1	0.944586880483257	RANDOM	NONE	0	0
0	0	1	0.748443399133976	RANDOM	NONE	0	0
1	0	1	1.09420529141426	COHERENT	RIGHT	0	0
0	0	1	0.687869379544281	RANDOM	NONE	0	0
0	0	1	0.599915544516989	RANDOM	NONE	0	0
0	0	1	0.749746754288935	RANDOM	NONE	0	0
0	0	1	0.948457404614601	RANDOM	NONE	0	0
1	0	1	0.729242303321371	COHERENT	RIGHT	0	0
0	0	0	NaN	RANDOM	NONE	1	0
0	0	1	0.724771716650139	RANDOM	NONE	0	0
1	0	1	0.674553605385881	COHERENT	RIGHT	0	0
0	0	0	NaN	RANDOM	NONE	1	0
1	0	1	0.734243830647756	COHERENT	RIGHT	0	0
0	0	1	0.620081026554544	RANDOM	NONE	0	0
0	0	1	0.687817462665407	RANDOM	NONE	0	0
1	180	1	0.799695320358296	COHERENT	LEFT	0	0
0	0	1	0.674421700288804	RANDOM	NONE	0	0
1	0	1	0.648288191809115	COHERENT	RIGHT	0	0
1	0	1	0.675099939991924	COHERENT	RIGHT	0	0
0	0	1	0.81493926328767	RANDOM	NONE	0	0
0	0	1	0.879747527003929	RANDOM	NONE	0	0
1	0	1	0.728545651236345	COHERENT	RIGHT	0	0
0	0	0	NaN	RANDOM	NONE	1	0
1	0	1	0.434050168609247	COHERENT	RIGHT	0	0
0	0	1	1.01757808962793	RANDOM	NONE	0	0
0	0	1	0.809626838370605	RANDOM	NONE	0	0
0	0	1	0.908463900261268	RANDOM	NONE	0	0
1	180	1	0.549216598428757	COHERENT	LEFT	0	0
0	0	0	NaN	RANDOM	NONE	1	0
1	180	1	0.722978471396345	COHERENT	LEFT	0	0
1	180	1	0.597823475363839	COHERENT	LEFT	0	0
0	0	1	0.808555901803629	RANDOM	NONE	0	0
0	0	1	0.613360205348727	RANDOM	NONE	0	0
1	0	1	0.674234859892749	COHERENT	RIGHT	0	0
0	0	0	NaN	RANDOM	NONE	1	0
1	0	1	0.618096111425984	COHERENT	RIGHT	0	0
0	0	1	0.877741181073361	RANDOM	NONE	0	0
1	180	1	0.614264826795988	COHERENT	LEFT	0	0
0	0	0	NaN	RANDOM	NONE	1	0
0	0	1	0.588240887078427	RANDOM	NONE	0	0
1	0	0	NaN	COHERENT	RIGHT	1	0
0	0	1	0.619763790273282	RANDOM	NONE	0	0
0	0	0	NaN	RANDOM	NONE	1	0
0	0	1	0.584513738049282	RANDOM	NONE	0	0
0	0	1	0.784221977261041	RANDOM	NONE	0	0
1	180	1	0.529023950584815	COHERENT	LEFT	0	0
1	0	1	0.460211748428264	COHERENT	RIGHT	0	0
0	0	0	NaN	RANDOM	NONE	1	0
0	0	0	NaN	RANDOM	NONE	1	1
