onset	duration	trial_type	trial_type_id	response_time	bad_epoch	outliers	event_num	response_accuracy
n/a	0.2	FACES	1	0.847283463045642	1	0	n/a	1
n/a	0.2	SCRAMBLED	0	0.51175713136945	1	0	n/a	1
25.234375	0.2	SCRAMBLED	0	0.621038899258565	0	0	5.0	1
26.564453125	0.2	SCRAMBLED	0	0.635839827006748	0	0	13.0	1
28.1142578125	0.2	FACES	1	0.431766319506096	0	0	19.0	1
29.484375	0.2	FACES	1	0.60551173449312	0	0	27.0	1
30.984375	0.2	FACES	1	0.453284788744895	0	0	34.0	1
32.2841796875	0.2	SCRAMBLED	0	0.563172357837175	0	0	42.0	1
33.57373046875	0.2	FACES	1	0.856589016254475	0	0	50.0	1
35.1240234375	0.2	SCRAMBLED	0	0.458778352221088	0	0	56.0	1
36.48388671875	0.2	FACES	1	0.340727106328814	0	0	64.0	1
37.673828125	0.2	FACES	1	0.506546697703925	0	0	72.0	1
38.9736328125	0.2	FACES	1	0.523244414071996	0	0	80.0	1
40.34326171875	0.2	FACES	1	0.415079771370984	0	0	88.0	1
41.66357421875	0.2	FACES	1	0.380992511850309	0	0	96.0	1
42.7734375	0.2	FACES	1	0.456805197031827	0	0	104.0	1
43.92333984375	0.2	SCRAMBLED	0	0.47148176499195	0	0	112.0	1
45.04296875	0.2	FACES	1	0.390396768094433	0	0	120.0	1
46.4130859375	0.2	SCRAMBLED	0	0.526428869822666	0	0	128.0	1
47.8427734375	0.2	FACES	1	0.500091156932285	0	0	136.0	1
49.052734375	0.2	FACES	1	0.509976552746593	0	0	144.0	1
50.50244140625	0.2	FACES	1	0.545663586246519	0	0	152.0	1
51.90234375	0.2	SCRAMBLED	0	0.477317016041525	0	0	160.0	1
53.13232421875	0.2	FACES	1	0.590690885031108	0	0	168.0	1
54.40234375	0.2	SCRAMBLED	0	0.625110776802103	0	0	176.0	1
55.7021484375	0.2	SCRAMBLED	0	0.590706279082951	0	0	184.0	1
57.09228515625	0.2	SCRAMBLED	0	0.521902716838667	0	0	192.0	1
58.421875	0.2	FACES	1	0.41275345853046	0	0	200.0	1
59.5419921875	0.2	FACES	1	0.568537637550435	0	0	208.0	1
61.01171875	0.2	SCRAMBLED	0	0.549066577160374	0	0	216.0	1
62.4619140625	0.2	FACES	1	0.489216316003876	0	0	224.0	1
63.74169921875	0.2	SCRAMBLED	0	0.497145459901731	0	0	232.0	1
64.96142578125	0.2	FACES	1	0.595616377821898	0	0	240.0	1
66.46142578125	0.2	SCRAMBLED	0	0.456732754436416	0	0	247.0	1
67.8115234375	0.2	FACES	1	0.565498670678608	0	0	255.0	1
69.26123046875	0.2	SCRAMBLED	0	0.53135828658742	0	0	263.0	1
70.73095703125	0.2	SCRAMBLED	0	0.55118522122757	0	0	271.0	1
72.0009765625	0.2	SCRAMBLED	0	0.657981302565531	0	0	279.0	1
73.57080078125	0.2	SCRAMBLED	0	0.526884956329013	0	0	285.0	1
74.80078125	0.2	SCRAMBLED	0	0.63555398059998	0	0	293.0	1
76.15087890625	0.2	SCRAMBLED	0	0.61551907534249	0	0	301.0	1
77.70068359375	0.2	FACES	1	0.506154602157949	0	0	307.0	1
78.92041015625	0.2	FACES	1	0.601825915613517	0	0	315.0	1
80.490234375	0.2	SCRAMBLED	0	0.636924051183087	0	0	321.0	1
82.01025390625	0.2	SCRAMBLED	0	0.551738501549153	0	0	327.0	1
83.39013671875	0.2	FACES	1	0.604396420369994	0	0	335.0	1
84.68994140625	0.2	FACES	1	0.612434228160055	0	0	343.0	1
86.009765625	0.2	FACES	1	0.582208762656592	0	0	351.0	1
87.31005859375	0.2	SCRAMBLED	0	0.61699116924774	0	0	359.0	1
88.849609375	0.2	FACES	1	0.490983009796764	0	0	365.0	1
90.24951171875	0.2	SCRAMBLED	0	0.528685154822597	0	0	373.0	1
91.4296875	0.2	FACES	1	0.62261392201799	0	0	381.0	1
92.92919921875	0.2	FACES	1	0.557272210296105	0	0	388.0	1
94.29931640625	0.2	FACES	1	0.540155534251426	0	0	396.0	1
95.54931640625	0.2	SCRAMBLED	0	0.684785666508105	0	0	404.0	1
96.9990234375	0.2	SCRAMBLED	0	0.577877299147076	0	0	412.0	1
98.3388671875	0.2	SCRAMBLED	0	0.575647274588846	0	0	420.0	1
99.619140625	0.2	FACES	1	0.561449733290829	0	0	428.0	1
101.05859375	0.2	FACES	1	0.581260066503091	0	0	436.0	1
102.3388671875	0.2	FACES	1	0.652159030814801	0	0	444.0	1
103.7685546875	0.2	SCRAMBLED	0	0.53196016381753	0	0	452.0	1
105.15869140625	0.2	FACES	1	0.531884400936178	0	0	460.0	1
n/a	0.2	FACES	1	0.59650772358782	1	0	n/a	1
108.08837890625	0.2	FACES	1	0.511743548383492	0	0	467.0	1
109.408203125	0.2	FACES	1	0.630222205587415	0	0	475.0	1
110.92822265625	0.2	SCRAMBLED	0	0.572138940068726	0	0	481.0	1
112.16796875	0.2	FACES	1	0.79191256903232	0	0	489.0	1
113.84765625	0.2	FACES	1	0.591533935733423	0	0	495.0	1
115.32763671875	0.2	SCRAMBLED	0	0.592443090305096	0	0	503.0	1
116.7177734375	0.2	SCRAMBLED	0	0.682732522620427	0	0	511.0	1
118.29736328125	0.2	SCRAMBLED	0	0.588192219182929	0	0	517.0	1
119.7373046875	0.2	FACES	1	0.668837127313054	0	0	525.0	1
121.05712890625	0.2	FACES	1	0.802673916560707	0	0	533.0	1
122.7373046875	0.2	FACES	1	0.586498571673474	0	0	539.0	1
124.037109375	0.2	FACES	1	0.74035426843875	0	0	547.0	1
125.73681640625	0.2	SCRAMBLED	0	0.496019581233668	0	0	553.0	1
127.126953125	0.2	SCRAMBLED	0	0.58455952487293	0	0	561.0	1
n/a	0.2	SCRAMBLED	0	0.789422052975169	1	0	n/a	1
130.04638671875	0.2	SCRAMBLED	0	0.623623590689022	0	0	568.0	1
131.3564453125	0.2	SCRAMBLED	0	0.751274084144825	0	0	576.0	1
132.7666015625	0.2	SCRAMBLED	0	0.727245780823068	0	0	584.0	1
134.16650390625	0.2	FACES	1	0.730019124845057	0	0	592.0	1
135.68603515625	0.2	SCRAMBLED	0	0.569837378447119	0	0	598.0	1
137.0859375	0.2	FACES	1	0.668649983941577	0	0	606.0	1
138.64599609375	0.2	SCRAMBLED	0	0.598473332673166	0	0	612.0	1
140.18603515625	0.2	SCRAMBLED	0	0.554372393576159	0	0	618.0	1
141.45556640625	0.2	SCRAMBLED	0	0.726877530963066	0	0	626.0	1
143.1357421875	0.2	FACES	1	0.573898087756788	0	0	632.0	1
144.4755859375	0.2	SCRAMBLED	0	0.717614537779809	0	0	640.0	1
145.85546875	0.2	FACES	1	0.699100625179199	0	0	648.0	1
147.4853515625	0.2	SCRAMBLED	0	0.550282103539757	0	0	654.0	1
148.9052734375	0.2	FACES	1	0.664157637502285	0	0	662.0	1
150.44482421875	0.2	FACES	1	0.665936405061075	0	0	668.0	1
152.06494140625	0.2	FACES	1	0.723829508766357	0	0	674.0	1
153.544921875	0.2	SCRAMBLED	0	0.665483940683771	0	0	682.0	1
155.12451171875	0.2	SCRAMBLED	0	0.528280381820878	0	0	688.0	1
156.3447265625	0.2	SCRAMBLED	0	0.833030382424113	0	0	696.0	1
157.88427734375	0.2	SCRAMBLED	0	0.795812395411303	0	0	702.0	1
159.6142578125	0.2	FACES	1	0.587849927919706	0	0	707.0	1
161.10400390625	0.2	SCRAMBLED	0	0.610679306289057	0	0	715.0	1
162.5341796875	0.2	SCRAMBLED	0	0.681385995880191	0	0	723.0	1
163.98388671875	0.2	FACES	1	0.682186486557839	0	0	731.0	1
165.47412109375	0.2	FACES	1	0.770027660997584	0	0	739.0	1
167.00390625	0.2	SCRAMBLED	0	0.73786978926455	0	0	745.0	1
168.50341796875	0.2	SCRAMBLED	0	0.776559568338598	0	0	752.0	1
170.24365234375	0.2	SCRAMBLED	0	0.606427529635766	0	0	757.0	1
171.54345703125	0.2	FACES	1	0.74718590701741	0	0	765.0	1
173.04345703125	0.2	FACES	1	0.708933500112835	0	0	772.0	1
174.4130859375	0.2	SCRAMBLED	0	0.764917741433237	0	0	780.0	1
176.13330078125	0.2	SCRAMBLED	0	0.771645545625688	0	0	785.0	1
177.73291015625	0.2	SCRAMBLED	0	0.712312645337988	0	0	791.0	1
179.28271484375	0.2	FACES	1	0.598397871636735	0	0	797.0	1
180.5625	0.2	SCRAMBLED	0	0.770146889435637	0	0	805.0	1
182.15283203125	0.2	SCRAMBLED	0	0.72681535106949	0	0	811.0	1
183.65234375	0.2	FACES	1	0.627054351264633	0	0	818.0	1
185.08251953125	0.2	FACES	1	0.670462558045074	0	0	826.0	1
186.72216796875	0.2	FACES	1	0.540283516170348	0	0	832.0	1
188.072265625	0.2	SCRAMBLED	0	0.616075977794026	0	0	840.0	1
189.4521484375	0.2	SCRAMBLED	0	0.764938266834179	0	0	848.0	1
190.94189453125	0.2	SCRAMBLED	0	0.741820929149071	0	0	856.0	1
192.37158203125	0.2	SCRAMBLED	0	0.875447333026386	0	0	864.0	1
194.171875	0.2	SCRAMBLED	0	0.619208214507125	0	0	869.0	1
195.58154296875	0.2	SCRAMBLED	0	0.759652070289121	0	0	877.0	1
197.2412109375	0.2	FACES	1	0.649805853844555	0	0	883.0	1
198.83154296875	0.2	FACES	1	0.656831880054597	0	0	889.0	1
200.2509765625	0.2	SCRAMBLED	0	0.777426464728705	0	0	897.0	1
201.701171875	0.2	SCRAMBLED	0	0.937214002670771	0	0	905.0	1
203.5810546875	0.2	FACES	1	0.623079063848309	0	0	910.0	1
204.9208984375	0.2	FACES	1	0.840950470997996	0	0	918.0	1
206.470703125	0.2	FACES	1	0.750559920892556	0	0	924.0	1
207.95068359375	0.2	SCRAMBLED	0	0.740624418949665	0	0	932.0	1
209.49072265625	0.2	SCRAMBLED	0	0.83242216646795	0	0	938.0	1
211.26025390625	0.2	FACES	1	0.583996585538443	0	0	943.0	1
212.6201171875	0.2	SCRAMBLED	0	0.71094498950788	0	0	951.0	1
214.01025390625	0.2	FACES	1	0.838482895095694	0	0	959.0	1
215.5302734375	0.2	FACES	1	0.814626039249561	0	0	965.0	1
217.27978515625	0.2	SCRAMBLED	0	0.640408238171403	0	0	970.0	1
218.82958984375	0.2	FACES	1	0.732402788074069	0	0	976.0	1
220.2294921875	0.2	SCRAMBLED	0	0.767002277111715	0	0	984.0	1
221.6494140625	0.2	SCRAMBLED	0	0.905876241485203	0	0	992.0	1
223.3994140625	0.2	FACES	1	0.635144679936275	0	0	997.0	1
224.8193359375	0.2	FACES	1	0.744275827596539	0	0	1005.0	1
226.41943359375	0.2	FACES	1	0.739062073645073	0	0	1011.0	1
227.84912109375	0.2	FACES	1	0.761958159571805	0	0	1019.0	1
229.31884765625	0.2	FACES	1	0.74478805711351	0	0	1027.0	1
230.888671875	0.2	FACES	1	0.626513748396974	0	0	1033.0	1
232.1689453125	0.2	SCRAMBLED	0	0.81331573380703	0	0	1041.0	1
233.85888671875	0.2	SCRAMBLED	0	0.657352863051528	0	0	1047.0	1
235.478515625	0.2	SCRAMBLED	0	0.536993113123572	0	0	1053.0	1
236.9384765625	0.2	FACES	1	0.648868325924013	0	0	1061.0	1
263.076171875	0.2	SCRAMBLED	0	0.726319722979497	0	0	1065.0	1
264.56640625	0.2	FACES	1	0.511362017380634	0	0	1073.0	1
265.8662109375	0.2	SCRAMBLED	0	0.533911586227077	0	0	1081.0	1
267.0859375	0.2	SCRAMBLED	0	0.523053346726556	0	0	1089.0	1
268.56591796875	0.2	SCRAMBLED	0	0.468845156367934	0	0	1097.0	1
269.8359375	0.2	FACES	1	0.493688438886238	0	0	1105.0	1
271.1357421875	0.2	FACES	1	0.523434575885403	0	0	1113.0	1
272.45556640625	0.2	SCRAMBLED	0	0.503343225772369	0	0	1121.0	1
273.7158203125	0.2	FACES	1	0.649167755317649	0	0	1129.0	1
275.32568359375	0.2	SCRAMBLED	0	0.518937701783216	0	0	1135.0	1
276.62548828125	0.2	FACES	1	0.588836958280808	0	0	1143.0	1
277.9052734375	0.2	SCRAMBLED	0	0.68150130034428	0	0	1151.0	1
279.544921875	0.2	FACES	1	0.461240796772472	0	0	1157.0	1
280.94482421875	0.2	FACES	1	0.527079947647508	0	0	1165.0	1
282.27490234375	0.2	FACES	1	0.553350047450294	0	0	1173.0	1
283.724609375	0.2	SCRAMBLED	0	0.478870607866156	0	0	1181.0	1
285.0146484375	0.2	FACES	1	0.573410307614722	0	0	1189.0	1
286.39453125	0.2	SCRAMBLED	0	0.539927038232236	0	0	1197.0	1
287.74462890625	0.2	SCRAMBLED	0	0.527298180966682	0	0	1205.0	1
288.9443359375	0.2	FACES	1	0.712055474125009	0	0	1213.0	1
290.38427734375	0.2	FACES	1	0.616833606602995	0	0	1221.0	1
291.8642578125	0.2	SCRAMBLED	0	0.527810712328574	0	0	1229.0	1
293.18408203125	0.2	SCRAMBLED	0	0.554467172638397	0	0	1237.0	1
294.673828125	0.2	SCRAMBLED	0	0.524322903209395	0	0	1245.0	1
295.97412109375	0.2	SCRAMBLED	0	0.704351204117302	0	0	1253.0	1
297.43359375	0.2	FACES	1	0.69212470509774	0	0	1261.0	1
298.8935546875	0.2	SCRAMBLED	0	0.517954293552066	0	0	1269.0	1
300.2734375	0.2	SCRAMBLED	0	0.619664301013472	0	0	1277.0	1
301.7236328125	0.2	SCRAMBLED	0	0.563574112396964	0	0	1285.0	1
303.04345703125	0.2	FACES	1	0.652238113981184	0	0	1293.0	1
304.51318359375	0.2	FACES	1	0.653085088657463	0	0	1301.0	1
305.943359375	0.2	SCRAMBLED	0	0.603963274019407	0	0	1309.0	1
307.51318359375	0.2	SCRAMBLED	0	0.479879069161143	0	0	1315.0	1
308.78271484375	0.2	SCRAMBLED	0	0.644611417918895	0	0	1323.0	1
310.1328125	0.2	FACES	1	0.641442356220068	0	0	1331.0	1
311.53271484375	0.2	SCRAMBLED	0	0.42735969680416	0	0	1339.0	1
312.90283203125	0.2	SCRAMBLED	0	0.454134781863104	0	0	1347.0	1
314.302734375	0.2	FACES	1	0.612907519782311	0	0	1355.0	1
315.6826171875	0.2	FACES	1	0.641708582757019	0	0	1363.0	1
317.18212890625	0.2	SCRAMBLED	0	0.5183258636971	0	0	1370.0	1
318.55224609375	0.2	FACES	1	0.563255063133511	0	0	1378.0	1
320.001953125	0.2	SCRAMBLED	0	0.514161923689244	0	0	1386.0	1
321.47216796875	0.2	FACES	1	0.462970363733803	0	0	1394.0	1
322.76171875	0.2	SCRAMBLED	0	0.649882824101951	0	0	1402.0	1
324.07177734375	0.2	FACES	1	0.377792963892716	0	0	1410.0	1
325.341796875	0.2	FACES	1	0.67855982913261	0	0	1418.0	1
326.96142578125	0.2	SCRAMBLED	0	0.584214215168686	0	0	1424.0	1
328.33154296875	0.2	SCRAMBLED	0	0.5541182408042	0	0	1432.0	1
329.80126953125	0.2	SCRAMBLED	0	0.519406767586588	0	0	1440.0	1
331.01123046875	0.2	FACES	1	0.490630455833525	0	0	1448.0	1
332.2109375	0.2	SCRAMBLED	0	0.577673554346802	0	0	1456.0	1
333.52099609375	0.2	SCRAMBLED	0	0.567725978639828	0	0	1464.0	1
334.87109375	0.2	FACES	1	0.427377807452103	0	0	1472.0	1
336.220703125	0.2	FACES	1	0.458162288316998	0	0	1480.0	1
337.50048828125	0.2	FACES	1	0.399066637528449	0	0	1488.0	1
338.5908203125	0.2	FACES	1	0.466725908611807	0	0	1496.0	1
339.970703125	0.2	SCRAMBLED	0	0.568552427913346	0	0	1504.0	1
341.46044921875	0.2	SCRAMBLED	0	0.437362811835555	0	0	1512.0	1
342.810546875	0.2	SCRAMBLED	0	0.418200538007113	0	0	1520.0	1
344.1201171875	0.2	FACES	1	0.423142028537768	0	0	1528.0	1
345.490234375	0.2	SCRAMBLED	0	0.463930831810103	0	0	1536.0	1
346.66015625	0.2	FACES	1	0.391724278652873	0	0	1544.0	1
347.7099609375	0.2	FACES	1	0.452590245363353	0	0	1552.0	1
348.830078125	0.2	SCRAMBLED	0	0.398452384689335	0	0	1560.0	1
349.90966796875	0.2	SCRAMBLED	0	0.382385522588265	0	0	1568.0	1
351.1796875	0.2	FACES	1	0.346175695026432	0	0	1576.0	1
352.32958984375	0.2	SCRAMBLED	0	0.298107014617017	0	0	1584.0	1
353.51953125	0.2	FACES	1	0.348889877595866	0	0	1592.0	1
354.529296875	0.2	FACES	1	0.447904718669633	0	0	1600.0	1
355.8193359375	0.2	FACES	1	0.378643560698038	0	0	1608.0	1
356.939453125	0.2	FACES	1	0.38751506202334	0	0	1616.0	1
358.21923828125	0.2	FACES	1	0.29337017441776	0	0	1624.0	1
359.369140625	0.2	FACES	1	0.383046259426919	0	0	1632.0	1
360.63916015625	0.2	SCRAMBLED	0	n/a	0	1	1640.0	0
361.76904296875	0.2	SCRAMBLED	0	n/a	0	1	1648.0	0
363.7587890625	0.2	FACES	1	0.498613026144994	0	0	1650.0	1
365.03857421875	0.2	SCRAMBLED	0	0.534278930554137	0	0	1658.0	1
366.45849609375	0.2	FACES	1	0.437348625160666	0	0	1666.0	1
367.83837890625	0.2	FACES	1	0.332998386945292	0	0	1674.0	1
368.908203125	0.2	FACES	1	0.456928349442933	0	0	1682.0	1
370.22802734375	0.2	SCRAMBLED	0	0.428825753825549	0	0	1690.0	1
371.34814453125	0.2	FACES	1	0.387609237397555	0	0	1698.0	1
372.66796875	0.2	SCRAMBLED	0	0.394545012207345	0	0	1706.0	1
373.998046875	0.2	SCRAMBLED	0	0.433373941433274	0	0	1714.0	1
375.07763671875	0.2	FACES	1	0.501994887967157	0	0	1722.0	1
376.49755859375	0.2	SCRAMBLED	0	0.51995702946715	0	0	1730.0	1
377.69775390625	0.2	FACES	1	0.4167245201279	0	0	1738.0	1
378.83740234375	0.2	SCRAMBLED	0	0.447494814317906	0	0	1746.0	1
379.9375	0.2	FACES	1	0.502341405048355	0	0	1754.0	1
381.267578125	0.2	FACES	1	0.438223973186723	0	0	1762.0	1
382.6171875	0.2	FACES	1	0.363152315386287	0	0	1770.0	1
383.83740234375	0.2	SCRAMBLED	0	0.508935190438933	0	0	1778.0	1
385.00732421875	0.2	SCRAMBLED	0	0.476275653734774	0	0	1786.0	1
386.376953125	0.2	FACES	1	0.416630344754594	0	0	1794.0	1
387.57666015625	0.2	SCRAMBLED	0	0.383585654916715	0	0	1802.0	1
388.6767578125	0.2	SCRAMBLED	0	0.507448306171682	0	0	1810.0	1
390.02685546875	0.2	FACES	1	0.423299893026524	0	0	1818.0	1
391.20654296875	0.2	SCRAMBLED	0	0.447023937448648	0	0	1826.0	1
392.3466796875	0.2	SCRAMBLED	0	0.49301804303559	0	0	1834.0	1
393.5263671875	0.2	SCRAMBLED	0	0.419832609309196	0	0	1842.0	1
394.896484375	0.2	SCRAMBLED	0	0.413604055336691	0	0	1850.0	1
396.26611328125	0.2	SCRAMBLED	0	0.388393428491327	0	0	1858.0	1
397.43603515625	0.2	FACES	1	0.458311097480873	0	0	1866.0	1
398.68603515625	0.2	SCRAMBLED	0	0.583163193849032	0	0	1874.0	1
400.0458984375	0.2	FACES	1	0.439106565471775	0	0	1882.0	1
401.416015625	0.2	FACES	1	0.558846327522588	0	0	1890.0	1
402.765625	0.2	SCRAMBLED	0	0.473589844514208	0	0	1898.0	1
403.95556640625	0.2	SCRAMBLED	0	0.558613303840502	0	0	1906.0	1
405.40576171875	0.2	FACES	1	0.423439948710438	0	0	1914.0	1
406.525390625	0.2	FACES	1	0.777143636762958	0	0	1922.0	1
408.25537109375	0.2	SCRAMBLED	0	0.589854173055755	0	0	1927.0	1
409.775390625	0.2	FACES	1	0.488762946095449	0	0	1933.0	1
411.1953125	0.2	SCRAMBLED	0	0.363573689814984	0	0	1941.0	1
412.4951171875	0.2	FACES	1	0.357355700386506	0	0	1949.0	1
413.6650390625	0.2	FACES	1	0.453273318667016	0	0	1957.0	1
414.96484375	0.2	FACES	1	0.393090123418006	0	0	1965.0	1
416.23486328125	0.2	SCRAMBLED	0	0.389156188650304	0	0	1973.0	1
417.36474609375	0.2	FACES	1	0.331797952771922	0	0	1981.0	1
418.5146484375	0.2	FACES	1	0.433516713714198	0	0	1989.0	1
419.734375	0.2	FACES	1	0.528459073555496	0	0	1997.0	1
420.96435546875	0.2	FACES	1	0.382334510927649	0	0	2005.0	1
422.01416015625	0.2	FACES	1	0.397062996081331	0	0	2013.0	1
423.234375	0.2	SCRAMBLED	0	0.419947913774195	0	0	2021.0	1
424.38427734375	0.2	FACES	1	0.317714206717028	0	0	2029.0	1
425.57421875	0.2	SCRAMBLED	0	0.408555410133886	0	0	2037.0	1
426.6337890625	0.2	FACES	1	0.322457989331269	0	0	2045.0	1
427.8935546875	0.2	SCRAMBLED	0	0.404396299632026	0	0	2053.0	1
429.25390625	0.2	FACES	1	0.293334858652997	0	0	2061.0	1
430.50341796875	0.2	SCRAMBLED	0	0.339110730921675	0	0	2069.0	1
431.7734375	0.2	FACES	1	0.308775092304131	0	0	2077.0	1
433.04345703125	0.2	SCRAMBLED	0	0.359804260107921	0	0	2085.0	1
434.12353515625	0.2	FACES	1	0.337490733384584	0	0	2093.0	1
435.4130859375	0.2	SCRAMBLED	0	0.354347521617456	0	0	2101.0	1
436.443359375	0.2	SCRAMBLED	0	0.563337466585836	0	0	2109.0	1
437.7431640625	0.2	FACES	1	0.436984902963559	0	0	2117.0	1
438.8427734375	0.2	SCRAMBLED	0	0.548104298019098	0	0	2125.0	1
440.3330078125	0.2	SCRAMBLED	0	0.435204626183804	0	0	2133.0	1
441.61279296875	0.2	FACES	1	0.462595171458815	0	0	2141.0	1
442.90283203125	0.2	SCRAMBLED	0	0.417590812829985	0	0	2149.0	1
444.17236328125	0.2	SCRAMBLED	0	0.369315972867298	0	0	2157.0	1
445.33251953125	0.2	SCRAMBLED	0	0.334142376261298	0	0	2165.0	1
446.4521484375	0.2	SCRAMBLED	0	0.353111771680233	0	0	2173.0	1
447.72216796875	0.2	SCRAMBLED	0	0.338724974101751	0	0	2181.0	1
448.80224609375	0.2	FACES	1	0.402787772172815	0	0	2189.0	1
449.94189453125	0.2	FACES	1	0.467587371806985	0	0	2197.0	1
451.072265625	0.2	SCRAMBLED	0	0.457420053558963	0	0	2205.0	1
452.39208984375	0.2	FACES	1	0.412344459710766	0	0	2213.0	1
453.56201171875	0.2	FACES	1	0.551950396139546	0	0	2221.0	1
454.79150390625	0.2	FACES	1	0.467923324342337	0	0	2229.0	1
455.99169921875	0.2	FACES	1	0.426867388999199	0	0	2237.0	1
477.10986328125	0.2	FACES	1	0.531974652335521	0	0	2241.0	1
478.47998046875	0.2	FACES	1	0.416854011267787	0	0	2249.0	1
479.56005859375	0.2	SCRAMBLED	0	0.477806305403647	0	0	2257.0	1
480.9296875	0.2	SCRAMBLED	0	0.414583841437889	0	0	2265.0	1
482.20947265625	0.2	FACES	1	0.35825911991833	0	0	2273.0	1
483.41943359375	0.2	SCRAMBLED	0	0.374292477319614	0	0	2281.0	1
484.599609375	0.2	FACES	1	0.312956841116829	0	0	2289.0	1
485.79931640625	0.2	SCRAMBLED	0	0.394962160818068	0	0	2297.0	1
487.1494140625	0.2	FACES	1	0.413826816316941	0	0	2305.0	1
488.26904296875	0.2	SCRAMBLED	0	0.377723841582338	0	0	2313.0	1
489.29931640625	0.2	SCRAMBLED	0	0.408550278782968	0	0	2321.0	1
490.4990234375	0.2	FACES	1	0.427337360336423	0	0	2329.0	1
491.7890625	0.2	FACES	1	0.443167576626365	0	0	2337.0	1
492.958984375	0.2	FACES	1	0.41696146778304	0	0	2345.0	1
494.10888671875	0.2	FACES	1	0.346840657682151	0	0	2353.0	1
495.1787109375	0.2	SCRAMBLED	0	0.457679941369861	0	0	2361.0	1
496.30859375	0.2	FACES	1	0.416625213404586	0	0	2369.0	1
497.50830078125	0.2	SCRAMBLED	0	0.463399284267325	0	0	2377.0	1
498.658203125	0.2	FACES	1	0.357337589737654	0	0	2385.0	1
499.6982421875	0.2	FACES	1	n/a	0	1	2393.0	0
500.8984375	0.2	FACES	1	0.617087457530943	0	0	2401.0	1
502.4482421875	0.2	SCRAMBLED	0	0.394881870273821	0	0	2407.0	1
503.67822265625	0.2	SCRAMBLED	0	0.483690757049771	0	0	2415.0	1
504.81787109375	0.2	SCRAMBLED	0	0.51742334969731	0	0	2423.0	1
506.177734375	0.2	SCRAMBLED	0	0.572086721030246	0	0	2431.0	1
507.6875	0.2	FACES	1	0.498114983302003	0	0	2437.0	1
509.08740234375	0.2	FACES	1	0.503992794376245	0	0	2445.0	1
510.517578125	0.2	FACES	1	0.418806037365357	0	0	2453.0	1
511.8173828125	0.2	SCRAMBLED	0	0.483312244488843	0	0	2461.0	1
513.26708984375	0.2	FACES	1	0.443372528801774	0	0	2469.0	1
514.5869140625	0.2	SCRAMBLED	0	0.61366514859219	0	0	2477.0	1
515.95703125	0.2	FACES	1	0.361958219939879	0	0	2485.0	1
517.10693359375	0.2	SCRAMBLED	0	0.525034048019734	0	0	2493.0	1
518.48681640625	0.2	FACES	1	0.353834990256473	0	0	2501.0	1
519.6767578125	0.2	FACES	1	0.40758769779859	0	0	2509.0	1
520.8466796875	0.2	FACES	1	0.364546835345209	0	0	2517.0	1
522.056640625	0.2	FACES	1	0.390390429367471	0	0	2525.0	1
523.146484375	0.2	FACES	1	0.477004909193056	0	0	2533.0	1
524.326171875	0.2	SCRAMBLED	0	0.476047761402697	0	0	2541.0	1
525.67626953125	0.2	FACES	1	0.368855358699875	0	0	2549.0	1
527.01611328125	0.2	FACES	1	0.453612893333229	0	0	2557.0	1
528.34619140625	0.2	SCRAMBLED	0	0.403566831916578	0	0	2565.0	1
529.49609375	0.2	SCRAMBLED	0	0.502321483334526	0	0	2573.0	1
530.7861328125	0.2	FACES	1	0.518066881418235	0	0	2581.0	1
532.1357421875	0.2	FACES	1	0.447026654045658	0	0	2589.0	1
533.40576171875	0.2	SCRAMBLED	0	0.453827504522451	0	0	2597.0	1
534.65576171875	0.2	FACES	1	0.338618423117623	0	0	2605.0	1
535.87548828125	0.2	SCRAMBLED	0	0.35356212314764	0	0	2613.0	1
537.00537109375	0.2	SCRAMBLED	0	0.404384225866124	0	0	2621.0	1
538.30517578125	0.2	SCRAMBLED	0	0.444289833164476	0	0	2629.0	1
539.50537109375	0.2	FACES	1	0.481948814476709	0	0	2637.0	1
540.89501953125	0.2	FACES	1	0.383863653377375	0	0	2645.0	1
542.1748046875	0.2	FACES	1	0.383678622913976	0	0	2653.0	1
543.3447265625	0.2	SCRAMBLED	0	0.552552877057678	0	0	2661.0	1
544.625	0.2	FACES	1	0.337440627256001	0	0	2669.0	1
545.86474609375	0.2	FACES	1	0.438292189964159	0	0	2677.0	1
547.064453125	0.2	SCRAMBLED	0	0.437736796732679	0	0	2685.0	1
548.4443359375	0.2	FACES	1	0.352029056724859	0	0	2693.0	1
549.46435546875	0.2	FACES	1	0.382825309510736	0	0	2701.0	1
550.654296875	0.2	SCRAMBLED	0	0.369754250569713	0	0	2709.0	1
551.984375	0.2	SCRAMBLED	0	0.42939261713309	0	0	2717.0	1
553.1142578125	0.2	FACES	1	0.473309129457448	0	0	2725.0	1
554.5341796875	0.2	SCRAMBLED	0	0.383045957582908	0	0	2733.0	1
555.82421875	0.2	FACES	1	0.342909439511459	0	0	2741.0	1
556.98388671875	0.2	FACES	1	0.418883007622753	0	0	2749.0	1
558.2236328125	0.2	FACES	1	0.443703349987118	0	0	2757.0	1
559.3935546875	0.2	FACES	1	0.336415564533127	0	0	2765.0	1
560.40380859375	0.2	FACES	1	0.367345232431944	0	0	2773.0	1
561.7236328125	0.2	SCRAMBLED	0	0.403250801094146	0	0	2781.0	1
562.8935546875	0.2	SCRAMBLED	0	0.417247314190718	0	0	2789.0	1
564.17333984375	0.2	FACES	1	0.357569406043694	0	0	2797.0	1
565.36328125	0.2	SCRAMBLED	0	0.309802569780913	0	0	2805.0	1
566.63330078125	0.2	SCRAMBLED	0	0.339782635992378	0	0	2813.0	1
567.84326171875	0.2	SCRAMBLED	0	0.263567290719948	0	0	2821.0	1
568.8427734375	0.2	SCRAMBLED	0	0.343309986694294	0	0	2830.0	1
570.10302734375	0.2	FACES	1	0.542176078972261	0	0	2838.0	1
571.4326171875	0.2	SCRAMBLED	0	0.384870001762465	0	0	2846.0	1
572.462890625	0.2	SCRAMBLED	0	0.457848974091576	0	0	2854.0	1
573.6025390625	0.2	SCRAMBLED	0	0.4177308685139	0	0	2862.0	1
574.802734375	0.2	SCRAMBLED	0	0.404678523909752	0	0	2870.0	1
575.982421875	0.2	SCRAMBLED	0	0.31439452478935	0	0	2878.0	1
577.2724609375	0.2	SCRAMBLED	0	0.339404123432359	0	0	2886.0	1
578.4521484375	0.2	SCRAMBLED	0	0.358937363716905	0	0	2894.0	1
579.751953125	0.2	FACES	1	0.439024463864371	0	0	2902.0	1
580.90185546875	0.2	FACES	1	0.541648757247458	0	0	2910.0	1
582.27197265625	0.2	FACES	1	0.448687702386451	0	0	2918.0	1
583.4619140625	0.2	FACES	1	0.427489187943138	0	0	2926.0	1
584.61181640625	0.2	FACES	1	0.507160648699028	0	0	2934.0	1
585.9814453125	0.2	SCRAMBLED	0	0.578005884753111	0	0	2942.0	1
587.24169921875	0.2	SCRAMBLED	0	0.732860987489403	0	0	2950.0	1
588.76123046875	0.2	SCRAMBLED	0	0.723613690201091	0	0	2956.0	1
590.33154296875	0.2	FACES	1	0.678535681599897	0	0	2962.0	1
591.9111328125	0.2	FACES	1	0.752229722714219	0	0	2968.0	1
593.4111328125	0.2	FACES	1	0.6420907174479	0	0	2975.0	1
594.77099609375	0.2	SCRAMBLED	0	0.737919593549123	0	0	2983.0	1
596.470703125	0.2	SCRAMBLED	0	0.478629132548122	0	0	2989.0	1
597.65087890625	0.2	FACES	1	0.682559565923839	0	0	2997.0	1
599.30078125	0.2	FACES	1	0.653368822156153	0	0	3003.0	1
600.70068359375	0.2	SCRAMBLED	0	0.488303539303161	0	0	3011.0	1
602.09033203125	0.2	SCRAMBLED	0	0.634565742862833	0	0	3019.0	1
603.5205078125	0.2	FACES	1	0.580887288980193	0	0	3027.0	1
605.0400390625	0.2	SCRAMBLED	0	0.633780646237028	0	0	3033.0	1
606.4599609375	0.2	SCRAMBLED	0	0.583505183267334	0	0	3041.0	1
608.009765625	0.2	SCRAMBLED	0	0.658317556945804	0	0	3047.0	1
609.48974609375	0.2	FACES	1	0.49818652036447	0	0	3055.0	1
610.9599609375	0.2	FACES	1	0.683836064821662	0	0	3063.0	1
612.349609375	0.2	SCRAMBLED	0	0.517770772310541	0	0	3071.0	1
613.77978515625	0.2	SCRAMBLED	0	0.618427041854375	0	0	3079.0	1
615.07958984375	0.2	SCRAMBLED	0	0.513483679890669	0	0	3087.0	1
616.46923828125	0.2	SCRAMBLED	0	0.3782478430212	0	0	3095.0	1
617.619140625	0.2	SCRAMBLED	0	0.403076335177502	0	0	3103.0	1
618.76904296875	0.2	FACES	1	0.556892188515121	0	0	3111.0	1
620.26904296875	0.2	FACES	1	0.663606168245678	0	0	3118.0	1
621.7587890625	0.2	SCRAMBLED	0	0.408490815486402	0	0	3126.0	1
623.11865234375	0.2	SCRAMBLED	0	0.459320162463882	0	0	3134.0	1
624.28857421875	0.2	SCRAMBLED	0	0.417141366895521	0	0	3142.0	1
625.53857421875	0.2	SCRAMBLED	0	0.393035187783425	0	0	3150.0	1
626.7783203125	0.2	SCRAMBLED	0	0.363985103387677	0	0	3158.0	1
627.78857421875	0.2	SCRAMBLED	0	0.367684203409226	0	0	3166.0	1
628.95849609375	0.2	SCRAMBLED	0	0.374448530743393	0	0	3174.0	1
630.00830078125	0.2	SCRAMBLED	0	0.383518041828211	0	0	3182.0	1
631.1083984375	0.2	FACES	1	0.542288666838431	0	0	3190.0	1
632.5283203125	0.2	FACES	1	n/a	0	1	3198.0	0
633.64794921875	0.2	FACES	1	0.613062365830046	0	0	3206.0	1
635.177734375	0.2	FACES	1	0.38877616686932	0	0	3212.0	1
636.36767578125	0.2	SCRAMBLED	0	0.544669613470433	0	0	3220.0	1
637.7177734375	0.2	SCRAMBLED	0	0.589536633013267	0	0	3228.0	1
639.16748046875	0.2	FACES	1	0.443331176154061	0	0	3236.0	1
640.267578125	0.2	FACES	1	0.442215862030935	0	0	3244.0	1
641.38720703125	0.2	FACES	1	0.437027161143305	0	0	3252.0	1
642.607421875	0.2	SCRAMBLED	0	0.464688762463084	0	0	3260.0	1
643.93701171875	0.2	SCRAMBLED	0	0.648469287962143	0	0	3268.0	1
645.27734375	0.2	SCRAMBLED	0	0.602392778921967	0	0	3276.0	1
646.60693359375	0.2	SCRAMBLED	0	0.523197326385343	0	0	3284.0	1
648.02685546875	0.2	FACES	1	0.44827689250269	0	0	3292.0	1
649.376953125	0.2	FACES	1	0.433136088244282	0	0	3300.0	1
650.74658203125	0.2	FACES	1	0.397931099847483	0	0	3308.0	1
652.056640625	0.2	FACES	1	0.378778786876865	0	0	3316.0	1
653.21630859375	0.2	FACES	1	0.451543751705685	0	0	3324.0	1
654.6162109375	0.2	FACES	1	0.473295848314592	0	0	3332.0	1
655.9462890625	0.2	SCRAMBLED	0	0.518239838114823	0	0	3340.0	1
657.2861328125	0.2	SCRAMBLED	0	0.668480347530931	0	0	3348.0	1
658.63623046875	0.2	FACES	1	0.55683695103653	0	0	3356.0	1
659.8662109375	0.2	FACES	1	0.587760582052397	0	0	3364.0	1
661.2861328125	0.2	SCRAMBLED	0	0.482353587478428	0	0	3372.0	1
662.666015625	0.2	SCRAMBLED	0	0.403209146602421	0	0	3380.0	1
663.7158203125	0.2	FACES	1	0.50211411640521	0	0	3388.0	1
665.15576171875	0.2	FACES	1	0.37801089536697	0	0	3396.0	1
666.3857421875	0.2	SCRAMBLED	0	0.509912863632053	0	0	3404.0	1
667.62548828125	0.2	SCRAMBLED	0	0.52758704581538	0	0	3412.0	1
693.41357421875	0.2	SCRAMBLED	0	0.656908548467072	0	0	3416.0	1
694.92333984375	0.2	SCRAMBLED	0	0.418886931597626	0	0	3422.0	1
696.0234375	0.2	SCRAMBLED	0	0.343052815482224	0	0	3430.0	1
697.21337890625	0.2	FACES	1	0.508702166757757	0	0	3438.0	1
698.44287109375	0.2	SCRAMBLED	0	0.442739863469797	0	0	3446.0	1
699.8427734375	0.2	SCRAMBLED	0	0.409545157091998	0	0	3454.0	1
700.9130859375	0.2	FACES	1	0.432478369848468	0	0	3462.0	1
702.2626953125	0.2	FACES	1	0.413292552177154	0	0	3470.0	1
703.4326171875	0.2	FACES	1	0.362067185677915	0	0	3478.0	1
704.50244140625	0.2	SCRAMBLED	0	0.48774241103456	0	0	3486.0	1
705.65234375	0.2	SCRAMBLED	0	0.42863498832503	0	0	3494.0	1
706.87255859375	0.2	FACES	1	0.447563634783364	0	0	3502.0	1
708.18212890625	0.2	FACES	1	0.428346727164353	0	0	3510.0	1
709.4921875	0.2	SCRAMBLED	0	0.468315721733234	0	0	3518.0	1
710.7421875	0.2	FACES	1	0.41711782305174	0	0	3526.0	1
712.02197265625	0.2	FACES	1	0.328996235400155	0	0	3534.0	1
713.27197265625	0.2	FACES	1	0.32289777625374	0	0	3542.0	1
714.341796875	0.2	FACES	1	0.322670185766583	0	0	3550.0	1
715.41162109375	0.2	FACES	1	0.326566390016524	0	0	3558.0	1
716.61181640625	0.2	FACES	1	0.338445164577934	0	0	3566.0	1
717.8115234375	0.2	SCRAMBLED	0	0.419242504002796	0	0	3574.0	1
718.8916015625	0.2	FACES	1	0.472733210825027	0	0	3582.0	1
720.08154296875	0.2	SCRAMBLED	0	0.55796464076866	0	0	3590.0	1
721.5615234375	0.2	SCRAMBLED	0	0.483755351696345	0	0	3598.0	1
722.9609375	0.2	SCRAMBLED	0	0.448611939505099	0	0	3606.0	1
724.06103515625	0.2	SCRAMBLED	0	0.417371673979687	0	0	3614.0	1
725.43115234375	0.2	SCRAMBLED	0	0.434247780238366	0	0	3622.0	1
726.70068359375	0.2	SCRAMBLED	0	0.393083784691044	0	0	3630.0	1
727.90087890625	0.2	FACES	1	0.574869422222037	0	0	3638.0	1
729.24072265625	0.2	SCRAMBLED	0	0.467590993936938	0	0	3646.0	1
730.5908203125	0.2	FACES	1	0.55740079590214	0	0	3654.0	1
732.04052734375	0.2	FACES	1	0.393452638238159	0	0	3662.0	1
733.12060546875	0.2	SCRAMBLED	0	0.472236073514978	0	0	3670.0	1
734.51025390625	0.2	SCRAMBLED	0	0.468914882365425	0	0	3678.0	1
735.66015625	0.2	FACES	1	0.387968733775779	0	0	3686.0	1
736.91015625	0.2	SCRAMBLED	0	0.558678200332906	0	0	3694.0	1
738.330078125	0.2	SCRAMBLED	0	0.479665061659944	0	0	3702.0	1
739.65966796875	0.2	SCRAMBLED	0	0.369324122659236	0	0	3710.0	1
740.89990234375	0.2	SCRAMBLED	0	0.30908418071067	0	0	3718.0	1
742.099609375	0.2	SCRAMBLED	0	0.412243643765578	0	0	3726.0	1
743.45947265625	0.2	FACES	1	0.412584123963825	0	0	3734.0	1
744.7294921875	0.2	SCRAMBLED	0	n/a	0	1	3742.0	0
745.87939453125	0.2	FACES	1	0.6116144194566	0	0	3750.0	1
747.34912109375	0.2	FACES	1	0.653230577536306	0	0	3758.0	1
748.69921875	0.2	FACES	1	0.552285744987785	0	0	3766.0	1
749.94921875	0.2	SCRAMBLED	0	0.633088215762655	0	0	3774.0	1
751.2890625	0.2	FACES	1	0.452011911977024	0	0	3782.0	1
752.51904296875	0.2	FACES	1	0.518708602076003	0	0	3790.0	1
753.9189453125	0.2	FACES	1	0.43869726480898	0	0	3798.0	1
755.138671875	0.2	SCRAMBLED	0	0.613460196415872	0	0	3806.0	1
756.4384765625	0.2	FACES	1	0.596121966767896	0	0	3814.0	1
757.728515625	0.2	SCRAMBLED	0	0.653071807515516	0	0	3822.0	1
759.20849609375	0.2	FACES	1	0.428943171198625	0	0	3830.0	1
760.29833984375	0.2	SCRAMBLED	0	0.467709316842956	0	0	3838.0	1
761.6484375	0.2	FACES	1	0.459600877521552	0	0	3846.0	1
762.998046875	0.2	FACES	1	0.558352812342491	0	0	3854.0	1
764.27783203125	0.2	FACES	1	0.50723067654144	0	0	3862.0	1
765.47802734375	0.2	SCRAMBLED	0	0.542909862093438	0	0	3870.0	1
766.82763671875	0.2	SCRAMBLED	0	0.548957913266349	0	0	3878.0	1
768.11767578125	0.2	FACES	1	0.437260486669402	0	0	3886.0	1
769.34765625	0.2	SCRAMBLED	0	0.49769209965234	0	0	3894.0	1
770.7373046875	0.2	FACES	1	0.538318812617945	0	0	3902.0	1
772.2373046875	0.2	SCRAMBLED	0	0.458171947328992	0	0	3909.0	1
773.45751953125	0.2	SCRAMBLED	0	0.488043047805149	0	0	3917.0	1
774.83740234375	0.2	SCRAMBLED	0	0.404962559251544	0	0	3925.0	1
776.037109375	0.2	FACES	1	0.473739559211026	0	0	3933.0	1
777.22705078125	0.2	FACES	1	0.441718121032864	0	0	3941.0	1
778.47705078125	0.2	FACES	1	0.383215593992645	0	0	3949.0	1
779.556640625	0.2	FACES	1	0.422300185211498	0	0	3957.0	1
780.796875	0.2	FACES	1	0.443208325586056	0	0	3965.0	1
782.12646484375	0.2	SCRAMBLED	0	0.49385958451694	0	0	3973.0	1
783.4765625	0.2	FACES	1	0.442891992919613	0	0	3981.0	1
784.79638671875	0.2	SCRAMBLED	0	0.503668311918773	0	0	3989.0	1
785.96630859375	0.2	SCRAMBLED	0	0.587480168839647	0	0	3997.0	1
787.49609375	0.2	SCRAMBLED	0	0.473288905899608	0	0	4003.0	1
788.68603515625	0.2	SCRAMBLED	0	0.457090741594584	0	0	4011.0	1
789.81591796875	0.2	SCRAMBLED	0	0.533028993941116	0	0	4019.0	1
791.11572265625	0.2	FACES	1	0.361941014823969	0	0	4027.0	1
792.1357421875	0.2	FACES	1	0.382765242526148	0	0	4035.0	1
793.45556640625	0.2	FACES	1	0.328523849309931	0	0	4043.0	1
794.70556640625	0.2	SCRAMBLED	0	0.523044895091516	0	0	4051.0	1
796.08544921875	0.2	FACES	1	0.622195566030314	0	0	4059.0	1
797.62548828125	0.2	SCRAMBLED	0	0.488920810584204	0	0	4065.0	1
799.00537109375	0.2	SCRAMBLED	0	0.42375869612988	0	0	4073.0	1
800.1953125	0.2	SCRAMBLED	0	0.516739069015784	0	0	4081.0	1
801.60498046875	0.2	FACES	1	0.623515832329758	0	0	4089.0	1
803.1748046875	0.2	SCRAMBLED	0	0.453499701778128	0	0	4095.0	1
804.4150390625	0.2	FACES	1	0.466069699435138	0	0	4103.0	1
805.52490234375	0.2	SCRAMBLED	0	0.416893251006513	0	0	4111.0	1
806.91455078125	0.2	FACES	1	0.393769574592625	0	0	4119.0	1
807.96484375	0.2	FACES	1	0.512573317942952	0	0	4127.0	1
809.28466796875	0.2	FACES	1	0.399481069543071	0	0	4135.0	1
810.41455078125	0.2	FACES	1	0.387441713894987	0	0	4143.0	1
811.46435546875	0.2	FACES	1	0.743579473149111	0	0	4151.0	1
812.88427734375	0.2	FACES	1	0.565985545287731	0	0	4159.0	1
814.2841796875	0.2	SCRAMBLED	0	0.544689535184261	0	0	4167.0	1
815.63427734375	0.2	FACES	1	0.593753093902706	0	0	4175.0	1
817.0341796875	0.2	FACES	1	0.5631246664625	0	0	4183.0	1
818.28369140625	0.2	SCRAMBLED	0	0.502277414088894	0	0	4191.0	1
819.45361328125	0.2	FACES	1	0.662200480052888	0	0	4199.0	1
820.7734375	0.2	FACES	1	0.59102412096945	0	0	4207.0	1
822.17333984375	0.2	FACES	1	0.532894673296141	0	0	4215.0	1
823.41357421875	0.2	SCRAMBLED	0	0.527728308876249	0	0	4223.0	1
824.66357421875	0.2	SCRAMBLED	0	0.60737713132221	0	0	4231.0	1
825.943359375	0.2	SCRAMBLED	0	0.512450467374947	0	0	4239.0	1
827.2333984375	0.2	FACES	1	0.591088413772923	0	0	4247.0	1
828.61328125	0.2	FACES	1	0.482953653641744	0	0	4255.0	1
830.033203125	0.2	SCRAMBLED	0	0.653808910921725	0	0	4263.0	1
831.35302734375	0.2	SCRAMBLED	0	0.587598793588768	0	0	4271.0	1
832.712890625	0.2	FACES	1	0.66849181760881	0	0	4279.0	1
834.232421875	0.2	SCRAMBLED	0	0.614133308863529	0	0	4285.0	1
835.65234375	0.2	FACES	1	0.523145107348682	0	0	4293.0	1
837.1025390625	0.2	FACES	1	0.588942301887982	0	0	4301.0	1
838.47216796875	0.2	FACES	1	0.737593300025765	0	0	4309.0	1
840.072265625	0.2	FACES	1	0.583497033476306	0	0	4315.0	1
841.4921875	0.2	FACES	1	0.808143634348198	0	0	4323.0	1
843.01220703125	0.2	SCRAMBLED	0	0.667834099212996	0	0	4329.0	1
844.39208984375	0.2	SCRAMBLED	0	0.726959330726459	0	0	4337.0	1
845.8916015625	0.2	FACES	1	0.448586886442172	0	0	4345.0	1
847.03173828125	0.2	FACES	1	0.656650169877139	0	0	4353.0	1
848.341796875	0.2	SCRAMBLED	0	0.627482366265212	0	0	4361.0	1
849.931640625	0.2	FACES	1	0.532843359790604	0	0	4367.0	1
851.361328125	0.2	SCRAMBLED	0	0.59901242631986	0	0	4375.0	1
852.78125	0.2	FACES	1	0.523934127948451	0	0	4383.0	1
854.0712890625	0.2	SCRAMBLED	0	0.877706938310439	0	0	4391.0	1
855.85107421875	0.2	FACES	1	0.50349112940421	0	0	4396.0	1
857.12109375	0.2	SCRAMBLED	0	0.717165695533367	0	0	4404.0	1
858.52099609375	0.2	SCRAMBLED	0	0.662196556078925	0	0	4412.0	1
859.9404296875	0.2	SCRAMBLED	0	0.467887103044632	0	0	4420.0	1
861.150390625	0.2	SCRAMBLED	0	0.442959002321004	0	0	4428.0	1
862.37060546875	0.2	FACES	1	0.478567556342568	0	0	4436.0	1
863.71044921875	0.2	FACES	1	0.483612277570501	0	0	4444.0	1
864.92041015625	0.2	SCRAMBLED	0	0.692169679876315	0	0	4452.0	1
866.3603515625	0.2	SCRAMBLED	0	0.603198400950532	0	0	4460.0	1
867.64013671875	0.2	SCRAMBLED	0	0.68284329942253	0	0	4468.0	1
869.08984375	0.2	FACES	1	0.63174199086734	0	0	4476.0	1
870.56005859375	0.2	SCRAMBLED	0	0.904441576254612	0	0	4484.0	1
872.24951171875	0.2	FACES	1	0.527435218209575	0	0	4490.0	1
873.6494140625	0.2	SCRAMBLED	0	0.47386512637604	0	0	4498.0	1
875.01953125	0.2	SCRAMBLED	0	0.603018199994949	0	0	4506.0	1
876.349609375	0.2	FACES	1	0.457805508534875	0	0	4514.0	1
877.74951171875	0.2	SCRAMBLED	0	0.52383270831524	0	0	4522.0	1
879.16943359375	0.2	FACES	1	0.403590375760359	0	0	4530.0	1
880.3388671875	0.2	SCRAMBLED	0	0.475454335809445	0	0	4538.0	1
881.68896484375	0.2	SCRAMBLED	0	0.478076757759482	0	0	4546.0	1
883.01904296875	0.2	SCRAMBLED	0	0.397997807404863	0	0	4554.0	1
884.30859375	0.2	FACES	1	0.498844842449216	0	0	4562.0	1
885.6884765625	0.2	SCRAMBLED	0	0.453554335567787	0	0	4570.0	1
886.82861328125	0.2	SCRAMBLED	0	0.492493136064695	0	0	4578.0	1
888.07861328125	0.2	FACES	1	0.752392114864961	0	0	4586.0	1
