onset	duration	trial_type	trial_type_id	response_time	bad_epoch	outliers	direction	name_direction	event_num	response_accuracy
59.16455078125	0.2	COHERENT	1	0.919589624771106	0	0	0	RIGHT	1.0	1
60.80419921875	0.2	COHERENT	1	0.774595166630206	0	0	0	RIGHT	4.0	1
62.43408203125	0.2	RANDOM	0	0.689558728005068	0	0	0	NONE	7.0	1
63.904296875	0.2	COHERENT	1	0.514324919528008	0	0	180	LEFT	11.0	1
65.0341796875	0.2	COHERENT	1	0.783120452718322	0	0	0	RIGHT	15.0	1
66.673828125	0.2	COHERENT	1	0.699868818533105	0	0	180	LEFT	18.0	1
68.24365234375	0.2	RANDOM	0	0.654737685362306	0	0	0	NONE	21.0	1
69.62353515625	0.2	COHERENT	1	0.634549443278956	0	0	180	LEFT	25.0	1
70.8935546875	0.2	COHERENT	1	n/a	0	1	180	LEFT	29.0	0
72.5234375	0.2	RANDOM	0	0.963100760405723	0	0	0	NONE	32.0	1
74.3935546875	0.2	COHERENT	1	0.769862250404913	0	0	180	LEFT	35.0	1
75.84326171875	0.2	RANDOM	0	0.772511234639751	0	0	0	NONE	39.0	1
77.26318359375	0.2	COHERENT	1	0.758526191620149	0	0	0	RIGHT	43.0	1
n/a	0.2	COHERENT	1	0.754386097300085	1	0	180	LEFT	n/a	1
80.20263671875	0.2	COHERENT	1	0.808118883128373	0	0	0	RIGHT	47.0	1
81.77294921875	0.2	RANDOM	0	1.08960213319278	0	0	0	NONE	50.0	1
83.75244140625	0.2	RANDOM	0	n/a	0	1	0	NONE	52.0	0
85.38232421875	0.2	RANDOM	0	0.769519959142599	0	0	0	NONE	55.0	1
86.79248046875	0.2	RANDOM	0	0.903292455586779	0	0	0	NONE	59.0	1
88.54248046875	0.2	RANDOM	0	1.03903871090824	0	0	0	NONE	62.0	1
90.421875	0.2	RANDOM	0	1.0804490112796	0	0	0	NONE	64.0	1
92.2421875	0.2	RANDOM	0	1.07457029467241	0	0	0	NONE	66.0	1
94.01171875	0.2	COHERENT	1	0.988334025561926	0	0	180	LEFT	68.0	1
95.681640625	0.2	RANDOM	0	0.963113136015636	0	0	0	NONE	71.0	1
97.24169921875	0.2	RANDOM	0	n/a	0	1	0	NONE	74.0	0
99.28125	0.2	COHERENT	1	0.869619024390886	0	0	180	LEFT	76.0	1
100.88134765625	0.2	RANDOM	0	0.994449086136228	0	0	0	NONE	79.0	1
102.5009765625	0.2	RANDOM	0	1.02319793007337	0	0	0	NONE	82.0	1
104.15087890625	0.2	RANDOM	0	n/a	0	1	0	NONE	84.0	0
105.791015625	0.2	COHERENT	1	1.06356596260503	0	0	0	RIGHT	86.0	1
107.6005859375	0.2	COHERENT	1	0.968325380746137	0	0	0	RIGHT	88.0	1
109.24072265625	0.2	COHERENT	1	0.913385218329495	0	0	180	LEFT	91.0	1
110.890625	0.2	RANDOM	0	0.924153810118696	0	0	0	NONE	94.0	1
112.4404296875	0.2	RANDOM	0	n/a	0	1	0	NONE	97.0	0
114.26025390625	0.2	COHERENT	1	0.904834577334441	0	0	0	RIGHT	99.0	1
115.84033203125	0.2	COHERENT	1	0.753604622803323	0	0	0	RIGHT	102.0	1
117.4501953125	0.2	COHERENT	1	0.879357723950307	0	0	0	RIGHT	105.0	1
119.14990234375	0.2	COHERENT	1	0.694281683372537	0	0	180	LEFT	108.0	1
120.64990234375	0.2	COHERENT	1	0.829635541303105	0	0	180	LEFT	112.0	1
122.349609375	0.2	RANDOM	0	0.784789650851053	0	0	0	NONE	115.0	1
123.82958984375	0.2	RANDOM	0	0.898541126868622	0	0	0	NONE	119.0	1
125.41943359375	0.2	RANDOM	0	1.02330749949942	0	0	0	NONE	122.0	1
127.119140625	0.2	COHERENT	1	0.843115900908742	0	0	0	RIGHT	124.0	1
128.6494140625	0.2	COHERENT	1	0.867902738571502	0	0	180	LEFT	127.0	1
130.35888671875	0.2	RANDOM	0	0.784768219916259	0	0	0	NONE	130.0	1
131.88916015625	0.2	RANDOM	0	0.939384262087515	0	0	0	NONE	133.0	1
133.60888671875	0.2	COHERENT	1	0.954285402092864	0	0	180	LEFT	136.0	1
135.15869140625	0.2	RANDOM	0	1.05809171715555	0	0	0	NONE	139.0	1
136.8486328125	0.2	COHERENT	1	1.02257069793632	0	0	180	LEFT	141.0	1
138.6484375	0.2	RANDOM	0	0.874633259361872	0	0	0	NONE	143.0	1
140.20849609375	0.2	COHERENT	1	0.768438753407281	0	0	180	LEFT	146.0	1
141.828125	0.2	COHERENT	1	1.09912320312196	0	0	180	LEFT	149.0	1
143.77783203125	0.2	RANDOM	0	0.940037754666264	0	0	0	NONE	151.0	1
145.48779296875	0.2	COHERENT	1	1.18081913257265	0	0	180	LEFT	154.0	1
147.28759765625	0.2	COHERENT	1	0.963202481883854	0	0	0	RIGHT	156.0	1
148.91748046875	0.2	RANDOM	0	1.05333193680053	0	0	0	NONE	159.0	1
150.71728515625	0.2	RANDOM	0	0.998997273743043	0	0	0	NONE	161.0	1
152.46728515625	0.2	COHERENT	1	0.880560271031754	0	0	180	LEFT	163.0	1
154.2373046875	0.2	RANDOM	0	0.973359235586031	0	0	0	NONE	166.0	1
155.876953125	0.2	RANDOM	0	1.05313121044401	0	0	0	NONE	169.0	1
157.796875	0.2	RANDOM	0	1.0599803559835	0	0	0	NONE	171.0	1
159.47705078125	0.2	COHERENT	1	n/a	0	1	180	LEFT	173.0	0
161.24658203125	0.2	COHERENT	1	0.962829100672934	0	0	0	RIGHT	175.0	1
163.04638671875	0.2	RANDOM	0	1.06453427862834	0	0	0	NONE	178.0	1
164.896484375	0.2	COHERENT	1	0.749284931215698	0	0	180	LEFT	180.0	1
166.4365234375	0.2	RANDOM	0	0.834041560317019	0	0	0	NONE	183.0	1
168.1162109375	0.2	COHERENT	1	0.789848860598795	0	0	180	LEFT	186.0	1
169.63623046875	0.2	COHERENT	1	0.934588562279714	0	0	0	RIGHT	189.0	1
171.43603515625	0.2	RANDOM	0	0.904469647760379	0	0	0	NONE	192.0	1
172.9755859375	0.2	COHERENT	1	0.703325839548597	0	0	0	RIGHT	195.0	1
174.5556640625	0.2	RANDOM	0	0.994056085057309	0	0	0	NONE	198.0	1
176.4453125	0.2	COHERENT	1	0.669800915674386	0	0	0	RIGHT	201.0	1
177.9453125	0.2	COHERENT	1	0.774612975434138	0	0	180	LEFT	205.0	1
179.35546875	0.2	COHERENT	1	0.688245102276596	0	0	180	LEFT	209.0	1
180.865234375	0.2	COHERENT	1	0.679266144436042	0	0	0	RIGHT	212.0	1
182.375	0.2	COHERENT	1	0.739101011540697	0	0	0	RIGHT	215.0	1
183.875	0.2	RANDOM	0	0.859847725664622	0	0	0	NONE	219.0	1
185.384765625	0.2	COHERENT	1	0.758777929639109	0	0	0	RIGHT	222.0	1
187.044921875	0.2	RANDOM	0	0.759426592710952	0	0	0	NONE	225.0	1
188.40478515625	0.2	RANDOM	0	0.878307608162686	0	0	0	NONE	229.0	1
190.03466796875	0.2	RANDOM	0	0.808917562741954	0	0	0	NONE	232.0	1
191.66455078125	0.2	RANDOM	0	0.87484394657622	0	0	0	NONE	235.0	1
193.43408203125	0.2	RANDOM	0	0.909797498798071	0	0	0	NONE	238.0	1
195.1240234375	0.2	RANDOM	0	1.02407780576141	0	0	0	NONE	241.0	1
196.9541015625	0.2	RANDOM	0	1.0190868127911	0	0	0	NONE	243.0	1
198.59375	0.2	COHERENT	1	0.882921295949927	0	0	0	RIGHT	245.0	1
200.11376953125	0.2	COHERENT	1	0.712942594072047	0	0	0	RIGHT	248.0	1
201.6435546875	0.2	RANDOM	0	1.02443700029744	0	0	0	NONE	251.0	1
203.32373046875	0.2	COHERENT	1	0.458135726031287	0	0	0	RIGHT	253.0	1
204.5634765625	0.2	COHERENT	1	0.675105826558138	0	0	0	RIGHT	257.0	1
206.0634765625	0.2	RANDOM	0	0.814042876357234	0	0	0	NONE	261.0	1
207.61328125	0.2	COHERENT	1	0.630772467467068	0	0	180	LEFT	264.0	1
209.15283203125	0.2	RANDOM	0	0.759442590450817	0	0	0	NONE	267.0	1
210.533203125	0.2	RANDOM	0	0.993337092299043	0	0	0	NONE	271.0	1
212.2529296875	0.2	COHERENT	1	0.714390238601482	0	0	180	LEFT	273.0	1
213.62255859375	0.2	COHERENT	1	0.718125861764747	0	0	180	LEFT	277.0	1
214.9326171875	0.2	RANDOM	0	0.787833447229787	0	0	0	NONE	281.0	1
216.40234375	0.2	RANDOM	0	0.982700708246739	0	0	0	NONE	285.0	1
218.04248046875	0.2	COHERENT	1	0.887356895690573	0	0	0	RIGHT	288.0	1
219.67236328125	0.2	RANDOM	0	0.889366875864653	0	0	0	NONE	291.0	1
221.42236328125	0.2	RANDOM	0	0.809036791180006	0	0	0	NONE	294.0	1
222.822265625	0.2	RANDOM	0	0.96786054075983	0	0	0	NONE	298.0	1
224.49169921875	0.2	COHERENT	1	0.748601857911126	0	0	0	RIGHT	301.0	1
226.0419921875	0.2	RANDOM	0	0.789459481648919	0	0	0	NONE	304.0	1
227.66162109375	0.2	RANDOM	0	0.713260134115444	0	0	0	NONE	307.0	1
228.9814453125	0.2	RANDOM	0	0.858062317534859	0	0	0	NONE	311.0	1
230.5615234375	0.2	COHERENT	1	0.675015575157886	0	0	180	LEFT	314.0	1
231.951171875	0.2	RANDOM	0	0.637944888087986	0	0	0	NONE	318.0	1
233.4013671875	0.2	COHERENT	1	0.594540907126429	0	0	180	LEFT	322.0	1
234.87109375	0.2	COHERENT	1	0.584324388282766	0	0	180	LEFT	326.0	1
236.201171875	0.2	RANDOM	0	0.819208637089105	0	0	0	NONE	330.0	1
237.69091796875	0.2	RANDOM	0	0.747821892635329	0	0	0	NONE	334.0	1
239.07080078125	0.2	RANDOM	0	0.74881133774943	0	0	0	NONE	338.0	1
240.46044921875	0.2	COHERENT	1	0.833557100460894	0	0	0	RIGHT	342.0	1
241.91064453125	0.2	COHERENT	1	0.68330330990193	0	0	0	RIGHT	346.0	1
243.26025390625	0.2	RANDOM	0	0.768284812893398	0	0	0	NONE	350.0	1
244.64013671875	0.2	RANDOM	0	0.883024224804103	0	0	0	NONE	354.0	1
246.16015625	0.2	RANDOM	0	0.812854214106665	0	0	0	NONE	357.0	1
247.8603515625	0.2	RANDOM	0	0.799621366702013	0	0	0	NONE	360.0	1
249.509765625	0.2	RANDOM	0	0.749493505521059	0	0	0	NONE	363.0	1
251.0498046875	0.2	COHERENT	1	0.684010228894294	0	0	180	LEFT	366.0	1
252.44970703125	0.2	COHERENT	1	0.634026649216139	0	0	0	RIGHT	370.0	1
253.82958984375	0.2	COHERENT	1	0.549863747552081	0	0	0	RIGHT	374.0	1
255.1796875	0.2	COHERENT	1	0.539744422523654	0	0	0	RIGHT	378.0	1
256.599609375	0.2	COHERENT	1	0.574375605197019	0	0	0	RIGHT	382.0	1
258.0693359375	0.2	COHERENT	1	0.639340917268783	0	0	180	LEFT	386.0	1
259.38916015625	0.2	COHERENT	1	0.62327314963477	0	0	180	LEFT	390.0	1
260.869140625	0.2	RANDOM	0	0.660008789701351	0	0	0	NONE	394.0	1
262.369140625	0.2	RANDOM	0	0.629796303495823	0	0	0	NONE	398.0	1
263.85888671875	0.2	RANDOM	0	0.630042608319854	0	0	0	NONE	402.0	1
265.23876953125	0.2	RANDOM	0	0.648398354586789	0	0	0	NONE	406.0	1
266.73876953125	0.2	RANDOM	0	0.609747815251467	0	0	0	NONE	410.0	1
268.07861328125	0.2	COHERENT	1	0.694018173432596	0	0	0	RIGHT	414.0	1
269.6484375	0.2	COHERENT	1	0.594869313557865	0	0	0	RIGHT	417.0	1
270.8583984375	0.2	COHERENT	1	0.703770757821985	0	0	0	RIGHT	421.0	1
272.318359375	0.2	RANDOM	0	0.699559126438544	0	0	0	NONE	425.0	1
273.89794921875	0.2	COHERENT	1	0.514324919528008	0	0	0	RIGHT	428.0	1
275.2880859375	0.2	RANDOM	0	0.594155452150517	0	0	0	NONE	432.0	1
276.6376953125	0.2	COHERENT	1	0.530064884417698	0	0	0	RIGHT	436.0	1
277.94775390625	0.2	COHERENT	1	0.649863506076144	0	0	180	LEFT	440.0	1
279.3076171875	0.2	COHERENT	1	0.788605866400758	0	0	180	LEFT	444.0	1
280.8076171875	0.2	RANDOM	0	0.718222451891961	0	0	0	NONE	448.0	1
282.1376953125	0.2	COHERENT	1	0.603140748718033	0	0	180	LEFT	452.0	1
283.62744140625	0.2	COHERENT	1	0.684087802839713	0	0	180	LEFT	456.0	1
285.05712890625	0.2	RANDOM	0	n/a	0	1	0	NONE	460.0	0
286.5771484375	0.2	RANDOM	0	0.973613992046012	0	0	0	NONE	463.0	1
288.27685546875	0.2	COHERENT	1	0.824424503949558	0	0	0	RIGHT	466.0	1
289.77685546875	0.2	COHERENT	1	0.823267837177809	0	0	180	LEFT	470.0	1
291.4267578125	0.2	RANDOM	0	0.704557665512766	0	0	0	NONE	473.0	1
292.896484375	0.2	COHERENT	1	0.664010639402477	0	0	0	RIGHT	477.0	1
n/a	0.2	COHERENT	1	0.758540076451027	1	0	180	LEFT	n/a	1
n/a	0.2	RANDOM	0	0.608312244488843	1	0	0	NONE	n/a	1
n/a	0.2	COHERENT	1	0.518512403379646	1	0	0	RIGHT	n/a	1
n/a	0.2	COHERENT	1	0.519438461222308	1	0	180	LEFT	n/a	1
n/a	0.2	COHERENT	1	0.528247782653125	1	0	180	LEFT	n/a	1
338.7333984375	0.2	RANDOM	0	0.623348912516121	0	0	0	NONE	481.0	1
340.23291015625	0.2	RANDOM	0	0.654831860736522	0	0	0	NONE	485.0	1
341.51318359375	0.2	COHERENT	1	0.503596171167374	0	0	180	LEFT	489.0	1
342.873046875	0.2	COHERENT	1	0.710139367479314	0	0	0	RIGHT	493.0	1
344.4326171875	0.2	COHERENT	1	0.628286780916824	0	0	0	RIGHT	496.0	1
345.8525390625	0.2	COHERENT	1	0.549205123622414	0	0	0	RIGHT	500.0	1
347.15234375	0.2	RANDOM	0	0.640013124183497	0	0	0	NONE	504.0	1
348.62255859375	0.2	COHERENT	1	0.574617684203076	0	0	0	RIGHT	508.0	1
350.01220703125	0.2	RANDOM	0	0.709572504171774	0	0	0	NONE	512.0	1
351.51220703125	0.2	COHERENT	1	0.569441057082258	0	0	0	RIGHT	516.0	1
352.97216796875	0.2	COHERENT	1	0.519207550450119	0	0	0	RIGHT	520.0	1
354.14208984375	0.2	RANDOM	0	0.688166019111122	0	0	0	NONE	524.0	1
355.7119140625	0.2	RANDOM	0	0.584665774012137	0	0	0	NONE	527.0	1
357.091796875	0.2	COHERENT	1	0.569758898968757	0	0	0	RIGHT	531.0	1
358.50146484375	0.2	RANDOM	0	0.704476469437395	0	0	0	NONE	535.0	1
359.9814453125	0.2	COHERENT	1	0.654070911641611	0	0	0	RIGHT	539.0	1
361.30126953125	0.2	COHERENT	1	0.563128892280474	0	0	0	RIGHT	543.0	1
362.50146484375	0.2	RANDOM	0	0.602992241398169	0	0	0	NONE	547.0	1
363.97119140625	0.2	RANDOM	0	0.584752101438426	0	0	0	NONE	551.0	1
365.38134765625	0.2	COHERENT	1	0.504616404384251	0	0	180	LEFT	555.0	1
366.541015625	0.2	COHERENT	1	0.598522533269715	0	0	0	RIGHT	559.0	1
367.791015625	0.2	COHERENT	1	0.54825522009196	0	0	180	LEFT	563.0	1
369.02099609375	0.2	COHERENT	1	0.513230432651653	0	0	0	RIGHT	567.0	1
370.32080078125	0.2	COHERENT	1	0.469993975190846	0	0	180	LEFT	571.0	1
371.6708984375	0.2	COHERENT	1	0.404886796371102	0	0	0	RIGHT	575.0	1
372.720703125	0.2	RANDOM	0	0.588667321870162	0	0	0	NONE	579.0	1
373.98046875	0.2	RANDOM	0	0.54855344211046	0	0	0	NONE	583.0	1
375.33056640625	0.2	COHERENT	1	0.499286440436663	0	0	180	LEFT	587.0	1
376.73046875	0.2	RANDOM	0	0.669101542785938	0	0	0	NONE	591.0	1
378.30029296875	0.2	RANDOM	0	0.510010661135311	0	0	0	NONE	594.0	1
379.4501953125	0.2	RANDOM	0	0.587835439399896	0	0	0	NONE	598.0	1
380.91015625	0.2	COHERENT	1	0.634572987121828	0	0	0	RIGHT	602.0	1
382.1796875	0.2	COHERENT	1	0.723457938622232	0	0	0	RIGHT	606.0	1
383.61962890625	0.2	COHERENT	1	0.664283808356231	0	0	0	RIGHT	610.0	1
385.11962890625	0.2	RANDOM	0	0.633756498704315	0	0	0	NONE	614.0	1
386.349609375	0.2	RANDOM	0	0.688993072072662	0	0	0	NONE	618.0	1
387.8193359375	0.2	RANDOM	0	0.56378419592329	0	0	0	NONE	622.0	1
389.19921875	0.2	COHERENT	1	0.544571212278242	0	0	180	LEFT	626.0	1
390.46923828125	0.2	COHERENT	1	0.484453215363828	0	0	180	LEFT	630.0	1
391.68896484375	0.2	COHERENT	1	0.504319389743614	0	0	180	LEFT	634.0	1
392.8388671875	0.2	COHERENT	1	0.518034584094494	0	0	180	LEFT	638.0	1
394.22900390625	0.2	COHERENT	1	0.594943567218252	0	0	180	LEFT	642.0	1
395.6787109375	0.2	COHERENT	1	0.408706332207657	0	0	180	LEFT	646.0	1
396.98876953125	0.2	COHERENT	1	0.439514055070504	0	0	180	LEFT	650.0	1
398.1787109375	0.2	RANDOM	0	0.589480490001733	0	0	0	NONE	654.0	1
399.55859375	0.2	RANDOM	0	0.619248661622805	0	0	0	NONE	658.0	1
400.79833984375	0.2	RANDOM	0	0.648051535662489	0	0	0	NONE	662.0	1
402.09814453125	0.2	RANDOM	0	0.817915838607405	0	0	0	NONE	666.0	1
403.79833984375	0.2	RANDOM	0	0.629710881602477	0	0	0	NONE	669.0	1
405.078125	0.2	RANDOM	0	0.808512186051303	0	0	0	NONE	673.0	1
406.56787109375	0.2	RANDOM	0	0.693265374129624	0	0	0	NONE	677.0	1
407.9677734375	0.2	RANDOM	0	0.797870066961877	0	0	0	NONE	681.0	1
409.36767578125	0.2	RANDOM	0	0.749116502181096	0	0	0	NONE	685.0	1
410.78759765625	0.2	COHERENT	1	0.592739803100812	0	0	180	LEFT	689.0	1
412.28759765625	0.2	RANDOM	0	0.759656296107096	0	0	0	NONE	693.0	1
413.7373046875	0.2	COHERENT	1	0.678426414018759	0	0	180	LEFT	697.0	1
415.20751953125	0.2	COHERENT	1	0.653981565773393	0	0	180	LEFT	701.0	1
416.45751953125	0.2	RANDOM	0	0.758004906778297	0	0	0	NONE	705.0	1
418.04736328125	0.2	RANDOM	0	0.615593329002877	0	0	0	NONE	708.0	1
419.5068359375	0.2	RANDOM	0	0.578641266683007	0	0	0	NONE	712.0	1
420.80712890625	0.2	RANDOM	0	0.85448486070527	0	0	0	NONE	716.0	1
422.39697265625	0.2	COHERENT	1	0.664301013472141	0	0	0	RIGHT	719.0	1
423.9267578125	0.2	COHERENT	1	0.604148606324998	0	0	180	LEFT	722.0	1
425.1767578125	0.2	RANDOM	0	0.737941628171939	0	0	0	NONE	726.0	1
426.53662109375	0.2	COHERENT	1	0.627731085842242	0	0	0	RIGHT	730.0	1
427.79638671875	0.2	COHERENT	1	0.598688245705489	0	0	180	LEFT	734.0	1
429.1865234375	0.2	COHERENT	1	0.564484776188692	0	0	0	RIGHT	738.0	1
430.40625	0.2	RANDOM	0	0.778296077716732	0	0	0	NONE	742.0	1
431.90625	0.2	RANDOM	0	n/a	0	1	0	NONE	746.0	0
433.6259765625	0.2	COHERENT	1	0.66892556764833	0	0	180	LEFT	749.0	1
435.1259765625	0.2	COHERENT	1	0.64475177544773	0	0	180	LEFT	753.0	1
436.5556640625	0.2	RANDOM	0	0.559475974412635	0	0	0	NONE	757.0	1
437.92578125	0.2	RANDOM	0	0.769380205301786	0	0	0	NONE	761.0	1
439.525390625	0.2	RANDOM	0	0.674209047597287	0	0	0	NONE	764.0	1
440.79541015625	0.2	COHERENT	1	0.657933007502834	0	0	0	RIGHT	768.0	1
442.21533203125	0.2	COHERENT	1	0.74973679190407	0	0	180	LEFT	772.0	1
443.5751953125	0.2	COHERENT	1	0.733535609157116	0	0	180	LEFT	776.0	1
445.14501953125	0.2	RANDOM	0	0.714440948418996	0	0	0	NONE	779.0	1
446.44482421875	0.2	RANDOM	0	0.758169411838935	0	0	0	NONE	783.0	1
448.11474609375	0.2	RANDOM	0	0.739982698293716	0	0	0	NONE	786.0	1
449.53466796875	0.2	RANDOM	0	0.752816507735588	0	0	0	NONE	790.0	1
450.9345703125	0.2	COHERENT	1	0.697423277254529	0	0	0	RIGHT	794.0	1
452.234375	0.2	COHERENT	1	0.678443920979589	0	0	180	LEFT	798.0	1
453.6845703125	0.2	RANDOM	0	0.604395514837961	0	0	0	NONE	802.0	1
455.17431640625	0.2	RANDOM	0	0.664146771112428	0	0	0	NONE	806.0	1
456.6943359375	0.2	RANDOM	0	0.69990503983081	0	0	0	NONE	809.0	1
458.0439453125	0.2	COHERENT	1	0.50773988761739	0	0	0	RIGHT	813.0	1
459.14404296875	0.2	RANDOM	0	0.608698303152778	0	0	0	NONE	817.0	1
460.4541015625	0.2	COHERENT	1	0.508456767465759	0	0	180	LEFT	821.0	1
461.59375	0.2	COHERENT	1	0.643246176841785	0	0	0	RIGHT	825.0	1
463.11376953125	0.2	RANDOM	0	0.594070935789205	0	0	0	NONE	828.0	1
464.58349609375	0.2	COHERENT	1	0.424941019653488	0	0	0	RIGHT	832.0	1
465.83349609375	0.2	RANDOM	0	0.514715204010827	0	0	0	NONE	836.0	1
466.96337890625	0.2	RANDOM	0	0.603547936472751	0	0	0	NONE	840.0	1
468.193359375	0.2	COHERENT	1	0.533436181695834	0	0	0	RIGHT	844.0	1
469.51318359375	0.2	RANDOM	0	0.784147326505263	0	0	0	NONE	848.0	1
471.203125	0.2	RANDOM	0	0.569147966415585	0	0	0	NONE	851.0	1
472.5830078125	0.2	COHERENT	1	0.434826415467796	0	0	180	LEFT	855.0	1
473.9228515625	0.2	RANDOM	0	0.509679538105956	0	0	0	NONE	859.0	1
475.23291015625	0.2	COHERENT	1	0.479545833222801	0	0	0	RIGHT	863.0	1
476.3427734375	0.2	COHERENT	1	0.643429999927321	0	0	180	LEFT	867.0	1
477.642578125	0.2	COHERENT	1	0.628191700010575	0	0	180	LEFT	871.0	1
479.052734375	0.2	RANDOM	0	0.559788986794047	0	0	0	NONE	875.0	1
480.47216796875	0.2	RANDOM	0	n/a	0	1	0	NONE	879.0	0
481.8125	0.2	RANDOM	0	0.649702924990379	0	0	0	NONE	883.0	1
483.22216796875	0.2	RANDOM	0	0.594472086660062	0	0	0	NONE	887.0	1
484.68212890625	0.2	RANDOM	0	0.639365366644597	0	0	0	NONE	891.0	1
486.03173828125	0.2	RANDOM	0	0.634190550587846	0	0	0	NONE	895.0	1
487.51171875	0.2	RANDOM	0	0.629934548114761	0	0	0	NONE	899.0	1
488.8818359375	0.2	RANDOM	0	0.635115702898474	0	0	0	NONE	903.0	1
490.26171875	0.2	RANDOM	0	0.569301605086366	0	0	0	NONE	907.0	1
491.70166015625	0.2	COHERENT	1	0.574205365098351	0	0	0	RIGHT	911.0	1
493.05126953125	0.2	COHERENT	1	0.484215362176656	0	0	180	LEFT	915.0	1
494.37158203125	0.2	COHERENT	1	0.554038553948885	0	0	0	RIGHT	919.0	1
495.521484375	0.2	RANDOM	0	0.657957456878648	0	0	0	NONE	923.0	1
496.951171875	0.2	COHERENT	1	0.545329444776144	0	0	180	LEFT	927.0	1
498.1708984375	0.2	RANDOM	0	0.872501334150911	0	0	0	NONE	931.0	1
499.82080078125	0.2	COHERENT	1	0.684404437351077	0	0	0	RIGHT	934.0	1
501.41064453125	0.2	RANDOM	0	0.550189135542496	0	0	0	NONE	937.0	1
502.74072265625	0.2	COHERENT	1	0.494973087576	0	0	180	LEFT	941.0	1
503.82080078125	0.2	COHERENT	1	0.628920955469766	0	0	0	RIGHT	945.0	1
505.16064453125	0.2	RANDOM	0	0.657704813327655	0	0	0	NONE	949.0	1
506.6904296875	0.2	RANDOM	0	0.724570536147439	0	0	0	NONE	952.0	1
508.31005859375	0.2	COHERENT	1	0.639666607102299	0	0	180	LEFT	955.0	1
509.7802734375	0.2	COHERENT	1	0.583167721511927	0	0	0	RIGHT	959.0	1
511.06005859375	0.2	RANDOM	0	0.597976195364026	0	0	0	NONE	963.0	1
512.3701171875	0.2	COHERENT	1	0.527828521132506	0	0	0	RIGHT	967.0	1
513.64990234375	0.2	COHERENT	1	0.569697322763204	0	0	0	RIGHT	971.0	1
515.01953125	0.2	COHERENT	1	0.57943753154359	0	0	0	RIGHT	975.0	1
516.36962890625	0.2	RANDOM	0	0.65412252699025	0	0	0	NONE	979.0	1
517.939453125	0.2	RANDOM	0	0.589119182557624	0	0	0	NONE	982.0	1
519.41943359375	0.2	COHERENT	1	0.538932763612138	0	0	0	RIGHT	986.0	1
520.58935546875	0.2	COHERENT	1	0.653657988847954	0	0	180	LEFT	990.0	1
521.9892578125	0.2	COHERENT	1	0.609430878897911	0	0	0	RIGHT	994.0	1
523.46923828125	0.2	RANDOM	0	0.563997901579569	0	0	0	NONE	998.0	1
524.7392578125	0.2	COHERENT	1	0.488213589747829	0	0	0	RIGHT	1002.0	1
525.97900390625	0.2	RANDOM	0	0.560063966810958	0	0	0	NONE	1006.0	1
527.23876953125	0.2	COHERENT	1	0.557874389369317	0	0	180	LEFT	1010.0	1
528.64892578125	0.2	RANDOM	0	0.579666631249893	0	0	0	NONE	1014.0	1
530.0986328125	0.2	RANDOM	0	0.634502657436315	0	0	0	NONE	1018.0	1
531.44873046875	0.2	RANDOM	0	0.718411104483494	0	0	0	NONE	1022.0	1
532.96826171875	0.2	COHERENT	1	0.509060153915925	0	0	180	LEFT	1025.0	1
534.29833984375	0.2	COHERENT	1	0.914961750309885	0	0	180	LEFT	1029.0	1
536.0380859375	0.2	RANDOM	0	0.58468992154485	0	0	0	NONE	1032.0	1
537.48828125	0.2	COHERENT	1	0.484368699003426	0	0	0	RIGHT	1036.0	1
n/a	0.2	COHERENT	1	0.759299818168984	1	0	0	RIGHT	n/a	1
n/a	0.2	RANDOM	0	0.548532011175666	1	0	0	NONE	n/a	1
n/a	0.2	RANDOM	0	0.608302887319951	1	0	0	NONE	n/a	1
n/a	0.2	RANDOM	0	0.504676471368839	1	0	0	NONE	n/a	1
565.3359375	0.2	RANDOM	0	0.538969286754764	0	0	0	NONE	1040.0	1
566.65576171875	0.2	RANDOM	0	0.494883138019759	0	0	0	NONE	1044.0	1
567.845703125	0.2	COHERENT	1	0.618644067796595	0	0	0	RIGHT	1048.0	1
569.20556640625	0.2	RANDOM	0	0.499576210817395	0	0	0	NONE	1052.0	1
570.54541015625	0.2	RANDOM	0	0.493256801755706	0	0	0	NONE	1056.0	1
571.7255859375	0.2	RANDOM	0	0.538578700427934	0	0	0	NONE	1060.0	1
573.12548828125	0.2	COHERENT	1	0.478971423810435	0	0	180	LEFT	1064.0	1
574.42529296875	0.2	COHERENT	1	0.46474279256563	0	0	0	RIGHT	1068.0	1
575.59521484375	0.2	COHERENT	1	0.488741213316644	0	0	180	LEFT	1072.0	1
576.98486328125	0.2	COHERENT	1	0.459468066096633	0	0	180	LEFT	1076.0	1
578.044921875	0.2	RANDOM	0	0.658396941956198	0	0	0	NONE	1080.0	1
579.384765625	0.2	RANDOM	0	0.57308582515725	0	0	0	NONE	1084.0	1
580.85498046875	0.2	RANDOM	0	0.439010277189482	0	0	0	NONE	1088.0	1
582.0048828125	0.2	RANDOM	0	0.497916671697567	0	0	0	NONE	1092.0	1
583.32470703125	0.2	RANDOM	0	0.52368238992949	0	0	0	NONE	1096.0	1
584.62451171875	0.2	RANDOM	0	0.624474791184184	0	0	0	NONE	1100.0	1
586.0244140625	0.2	COHERENT	1	0.53438668891431	0	0	180	LEFT	1104.0	1
587.32421875	0.2	RANDOM	0	0.564112602355635	0	0	0	NONE	1108.0	1
588.6943359375	0.2	RANDOM	0	0.498955317407308	0	0	0	NONE	1112.0	1
589.7939453125	0.2	RANDOM	0	0.608834434862729	0	0	0	NONE	1116.0	1
591.11376953125	0.2	RANDOM	0	0.697732667505079	0	0	0	NONE	1120.0	1
592.6240234375	0.2	COHERENT	1	0.474526165058705	0	0	180	LEFT	1123.0	1
593.99365234375	0.2	RANDOM	0	0.599433197060534	0	0	0	NONE	1127.0	1
595.44384765625	0.2	COHERENT	1	0.569008816264613	0	0	180	LEFT	1131.0	1
596.74365234375	0.2	COHERENT	1	0.634783372493075	0	0	0	RIGHT	1135.0	1
598.26318359375	0.2	RANDOM	0	0.684748539677457	0	0	0	NONE	1138.0	1
599.603515625	0.2	COHERENT	1	0.548629506834914	0	0	0	RIGHT	1142.0	1
600.80322265625	0.2	RANDOM	0	0.728260882689028	0	0	0	NONE	1146.0	1
602.2529296875	0.2	RANDOM	0	0.694368010798826	0	0	0	NONE	1150.0	1
603.77294921875	0.2	COHERENT	1	0.51494460556205	0	0	0	RIGHT	1153.0	1
604.98291015625	0.2	COHERENT	1	0.616675742114239	0	0	0	RIGHT	1157.0	1
606.302734375	0.2	RANDOM	0	0.588830921396948	0	0	0	NONE	1161.0	1
607.49267578125	0.2	RANDOM	0	0.618507332398622	0	0	0	NONE	1165.0	1
608.70263671875	0.2	RANDOM	0	0.668403980962466	0	0	0	NONE	1169.0	1
610.04248046875	0.2	RANDOM	0	0.628284969850938	0	0	0	NONE	1173.0	1
611.5625	0.2	RANDOM	0	0.559717147886658	0	0	0	NONE	1176.0	1
612.97216796875	0.2	COHERENT	1	0.438764877898393	0	0	0	RIGHT	1180.0	1
614.162109375	0.2	RANDOM	0	0.80074845274703	0	0	0	NONE	1184.0	1
615.7119140625	0.2	RANDOM	0	0.61946115990213	0	0	0	NONE	1187.0	1
617.162109375	0.2	RANDOM	0	0.594400851441605	0	0	0	NONE	1191.0	1
618.39208984375	0.2	RANDOM	0	0.538186906725969	0	0	0	NONE	1195.0	1
619.70166015625	0.2	COHERENT	1	0.469996088099833	0	0	0	RIGHT	1199.0	1
620.931640625	0.2	RANDOM	0	0.584925661823036	0	0	0	NONE	1203.0	1
622.4013671875	0.2	COHERENT	1	0.394706498825144	0	0	0	RIGHT	1207.0	1
623.63134765625	0.2	COHERENT	1	0.479476409069321	0	0	180	LEFT	1211.0	1
624.8515625	0.2	COHERENT	1	0.424230478532081	0	0	180	LEFT	1215.0	1
626.10107421875	0.2	RANDOM	0	0.544216243562005	0	0	0	NONE	1219.0	1
627.291015625	0.2	COHERENT	1	0.378095713572293	0	0	180	LEFT	1223.0	1
628.37109375	0.2	COHERENT	1	0.498502853030914	0	0	180	LEFT	1227.0	1
629.4912109375	0.2	RANDOM	0	0.55378560855479	0	0	0	NONE	1231.0	1
630.9208984375	0.2	COHERENT	1	0.324592027451217	0	0	180	LEFT	1235.0	1
631.86083984375	0.2	COHERENT	1	0.658427730059884	0	0	0	RIGHT	1240.0	1
633.2607421875	0.2	COHERENT	1	0.48920876990087	0	0	0	RIGHT	1244.0	1
634.53076171875	0.2	RANDOM	0	0.564285257207302	0	0	0	NONE	1248.0	1
635.84033203125	0.2	COHERENT	1	0.499954723377414	0	0	180	LEFT	1252.0	1
637.16064453125	0.2	COHERENT	1	0.494472026291987	0	0	180	LEFT	1256.0	1
638.33056640625	0.2	RANDOM	0	0.613535657452303	0	0	0	NONE	1260.0	1
639.650390625	0.2	COHERENT	1	0.438462430062827	0	0	180	LEFT	1264.0	1
640.97998046875	0.2	RANDOM	0	0.439357699803622	0	0	0	NONE	1268.0	1
642.2001953125	0.2	COHERENT	1	0.494151165963558	0	0	180	LEFT	1272.0	1
643.5498046875	0.2	RANDOM	0	0.459937131901825	0	0	0	NONE	1276.0	1
644.919921875	0.2	RANDOM	0	0.628847305497402	0	0	0	NONE	1280.0	1
646.33984375	0.2	RANDOM	0	0.689638716703485	0	0	0	NONE	1284.0	1
647.939453125	0.2	COHERENT	1	0.569262969035663	0	0	0	RIGHT	1287.0	1
649.349609375	0.2	COHERENT	1	0.618952854359122	0	0	180	LEFT	1291.0	1
650.78955078125	0.2	COHERENT	1	0.604805419189688	0	0	180	LEFT	1295.0	1
652.00927734375	0.2	COHERENT	1	0.618881317295745	0	0	0	RIGHT	1299.0	1
653.46923828125	0.2	RANDOM	0	0.609711895798682	0	0	0	NONE	1303.0	1
654.708984375	0.2	COHERENT	1	0.493590037694048	0	0	180	LEFT	1307.0	1
655.93896484375	0.2	COHERENT	1	0.559401720753158	0	0	180	LEFT	1311.0	1
657.10888671875	0.2	COHERENT	1	0.778081164683499	0	0	0	RIGHT	1315.0	1
658.4990234375	0.2	COHERENT	1	0.587975796928731	0	0	0	RIGHT	1319.0	1
659.798828125	0.2	RANDOM	0	0.654881061332162	0	0	0	NONE	1323.0	1
661.3583984375	0.2	COHERENT	1	0.479512932210127	0	0	0	RIGHT	1326.0	1
662.6787109375	0.2	COHERENT	1	0.599611586951141	0	0	0	RIGHT	1330.0	1
664.12841796875	0.2	COHERENT	1	0.599208926860229	0	0	0	RIGHT	1334.0	1
665.568359375	0.2	RANDOM	0	0.665187227887145	0	0	0	NONE	1338.0	1
667.09814453125	0.2	COHERENT	1	0.584963090497695	0	0	0	RIGHT	1341.0	1
668.3681640625	0.2	RANDOM	0	0.603460401670418	0	0	0	NONE	1345.0	1
669.68798828125	0.2	COHERENT	1	0.5744857783111	0	0	0	RIGHT	1349.0	1
671.0380859375	0.2	COHERENT	1	0.574479741428149	0	0	180	LEFT	1353.0	1
672.267578125	0.2	RANDOM	0	0.688125873839454	0	0	0	NONE	1357.0	1
673.8076171875	0.2	RANDOM	0	0.759099695499572	0	0	0	NONE	1360.0	1
675.27734375	0.2	RANDOM	0	0.727905310283859	0	0	0	NONE	1364.0	1
676.58740234375	0.2	COHERENT	1	0.527568331478506	0	0	180	LEFT	1368.0	1
677.9072265625	0.2	RANDOM	0	0.664386737210407	0	0	0	NONE	1372.0	1
679.29736328125	0.2	COHERENT	1	0.444251800801794	0	0	180	LEFT	1376.0	1
680.34716796875	0.2	RANDOM	0	0.73794193001595	0	0	0	NONE	1380.0	1
681.796875	0.2	RANDOM	0	0.675206642503326	0	0	0	NONE	1384.0	1
683.126953125	0.2	COHERENT	1	0.687865986028555	0	0	0	RIGHT	1388.0	1
684.5166015625	0.2	RANDOM	0	0.63871821279281	0	0	0	NONE	1392.0	1
685.8369140625	0.2	COHERENT	1	0.673584532057248	0	0	180	LEFT	1396.0	1
687.33642578125	0.2	RANDOM	0	0.874340168694289	0	0	0	NONE	1400.0	1
688.9365234375	0.2	COHERENT	1	0.784864810043473	0	0	0	RIGHT	1403.0	1
690.53662109375	0.2	RANDOM	0	0.714897940456467	0	0	0	NONE	1406.0	1
691.90625	0.2	COHERENT	1	0.677436968905567	0	0	180	LEFT	1410.0	1
693.2060546875	0.2	RANDOM	0	0.803602087312356	0	0	0	NONE	1414.0	1
694.88623046875	0.2	COHERENT	1	0.664417223468263	0	0	180	LEFT	1417.0	1
696.17578125	0.2	COHERENT	1	0.672931039478499	0	0	180	LEFT	1421.0	1
697.52587890625	0.2	RANDOM	0	0.964046136274192	0	0	0	NONE	1425.0	1
699.27587890625	0.2	COHERENT	1	0.583725529494586	0	0	180	LEFT	1428.0	1
700.505859375	0.2	COHERENT	1	0.658666186935079	0	0	0	RIGHT	1432.0	1
701.8154296875	0.2	RANDOM	0	0.758903496804123	0	0	0	NONE	1436.0	1
703.17529296875	0.2	COHERENT	1	n/a	0	1	0	RIGHT	1440.0	0
704.6953125	0.2	COHERENT	1	0.753159100841913	0	0	180	LEFT	1443.0	1
706.1953125	0.2	COHERENT	1	0.709858954266565	0	0	180	LEFT	1447.0	1
707.615234375	0.2	COHERENT	1	0.667717285527033	0	0	0	RIGHT	1451.0	1
709.06494140625	0.2	RANDOM	0	0.684559283397903	0	0	0	NONE	1455.0	1
710.455078125	0.2	RANDOM	0	0.728414823203821	0	0	0	NONE	1459.0	1
712.06494140625	0.2	RANDOM	0	0.629042598660817	0	0	0	NONE	1462.0	1
713.5244140625	0.2	RANDOM	0	0.555175299006805	0	0	0	NONE	1466.0	1
714.83447265625	0.2	COHERENT	1	0.720895885501704	0	0	0	RIGHT	1470.0	1
716.37451171875	0.2	COHERENT	1	0.784437096886904	0	0	180	LEFT	1473.0	1
717.80419921875	0.2	COHERENT	1	0.789171824177174	0	0	180	LEFT	1477.0	1
719.3740234375	0.2	RANDOM	0	0.713063029887053	0	0	0	NONE	1480.0	1
720.77392578125	0.2	COHERENT	1	0.842968299120002	0	0	0	RIGHT	1484.0	1
722.31396484375	0.2	COHERENT	1	0.727769178573908	0	0	180	LEFT	1487.0	1
723.74365234375	0.2	COHERENT	1	0.798630714211868	0	0	0	RIGHT	1491.0	1
725.16357421875	0.2	RANDOM	0	0.713432788967111	0	0	0	NONE	1495.0	1
726.61376953125	0.2	COHERENT	1	0.714295157695233	0	0	0	RIGHT	1499.0	1
727.9833984375	0.2	RANDOM	0	0.76818973198624	0	0	0	NONE	1503.0	1
729.603515625	0.2	COHERENT	1	0.729761953632078	0	0	180	LEFT	1506.0	1
731.0634765625	0.2	RANDOM	0	0.62974348077023	0	0	0	NONE	1510.0	1
732.4833984375	0.2	COHERENT	1	0.75434715940446	0	0	0	RIGHT	1514.0	1
733.98291015625	0.2	COHERENT	1	0.869401394761553	0	0	180	LEFT	1518.0	1
735.623046875	0.2	RANDOM	0	0.934137305280274	0	0	0	NONE	1521.0	1
737.44287109375	0.2	COHERENT	1	0.804883415717086	0	0	0	RIGHT	1524.0	1
739.04248046875	0.2	COHERENT	1	0.818432897632192	0	0	180	LEFT	1527.0	1
740.74267578125	0.2	COHERENT	1	0.774430057881546	0	0	0	RIGHT	1530.0	1
742.1123046875	0.2	RANDOM	0	0.858243122178465	0	0	0	NONE	1534.0	1
743.7421875	0.2	COHERENT	1	0.754165751071923	0	0	180	LEFT	1537.0	1
745.2919921875	0.2	RANDOM	0	0.890369300276689	0	0	0	NONE	1540.0	1
747.01220703125	0.2	RANDOM	0	0.713619026806555	0	0	0	NONE	1543.0	1
748.58203125	0.2	RANDOM	0	0.799434525174547	0	0	0	NONE	1546.0	1
750.20166015625	0.2	COHERENT	1	0.914051086518157	0	0	0	RIGHT	1549.0	1
751.8515625	0.2	COHERENT	1	0.765007389144557	0	0	180	LEFT	1552.0	1
753.271484375	0.2	RANDOM	0	0.857887851618216	0	0	0	NONE	1556.0	1
754.75146484375	0.2	COHERENT	1	0.902658281033837	0	0	0	RIGHT	1560.0	1
756.3212890625	0.2	COHERENT	1	0.863425484339132	0	0	0	RIGHT	1563.0	1
757.791015625	0.2	COHERENT	1	0.958056642864904	0	0	0	RIGHT	1567.0	1
759.60107421875	0.2	RANDOM	0	0.99853665957562	0	0	0	NONE	1570.0	1
761.32080078125	0.2	RANDOM	0	0.81490343402038	0	0	0	NONE	1572.0	1
762.94091796875	0.2	COHERENT	1	0.799659700908705	0	0	180	LEFT	1575.0	1
764.36083984375	0.2	RANDOM	0	0.913411478771195	0	0	0	NONE	1579.0	1
766.16064453125	0.2	RANDOM	0	0.894133900478664	0	0	0	NONE	1582.0	1
767.640625	0.2	RANDOM	0	1.01793769212327	0	0	0	NONE	1586.0	1
n/a	0.2	COHERENT	1	0.729232820842299	1	0	0	RIGHT	n/a	1
n/a	0.2	RANDOM	0	0.67812607909309	1	0	0	NONE	n/a	1
n/a	0.2	RANDOM	0	0.628364656707163	1	0	0	NONE	n/a	1
n/a	0.2	COHERENT	1	0.527159936347743	1	0	180	LEFT	n/a	1
n/a	0.2	COHERENT	1	0.584909965927181	1	0	0	RIGHT	n/a	1
800.7880859375	0.2	COHERENT	1	0.594863276674914	0	0	0	RIGHT	1589.0	1
802.2578125	0.2	RANDOM	0	0.554713779306439	0	0	0	NONE	1593.0	1
803.41796875	0.2	RANDOM	0	0.638401880126366	0	0	0	NONE	1597.0	1
804.7578125	0.2	COHERENT	1	0.608306207605892	0	0	180	LEFT	1601.0	1
806.23779296875	0.2	COHERENT	1	0.613987216296664	0	0	0	RIGHT	1605.0	1
807.62744140625	0.2	RANDOM	0	0.574698578434436	0	0	0	NONE	1609.0	1
808.9775390625	0.2	COHERENT	1	0.575572719084448	0	0	180	LEFT	1613.0	1
810.357421875	0.2	RANDOM	0	0.588622950780518	0	0	0	NONE	1617.0	1
811.79736328125	0.2	COHERENT	1	0.549350310658156	0	0	180	LEFT	1621.0	1
813.1171875	0.2	COHERENT	1	0.574262715485929	0	0	0	RIGHT	1625.0	1
814.4169921875	0.2	RANDOM	0	0.524576754137343	0	0	0	NONE	1629.0	1
815.81689453125	0.2	RANDOM	0	0.574735705264175	0	0	0	NONE	1633.0	1
817.216796875	0.2	COHERENT	1	0.524668212913639	0	0	180	LEFT	1637.0	1
n/a	0.2	RANDOM	0	0.629596180826411	1	0	0	NONE	n/a	1
n/a	0.2	COHERENT	1	0.608329147760742	1	0	180	LEFT	n/a	1
821.25634765625	0.2	COHERENT	1	0.664148582178314	0	0	180	LEFT	1641.0	1
822.65625	0.2	RANDOM	0	0.704030343787963	0	0	0	NONE	1645.0	1
824.10595703125	0.2	COHERENT	1	0.681054269162814	0	0	0	RIGHT	1649.0	1
825.68603515625	0.2	COHERENT	1	0.739478316723762	0	0	0	RIGHT	1652.0	1
827.255859375	0.2	COHERENT	1	0.674401624162783	0	0	180	LEFT	1655.0	1
828.77587890625	0.2	RANDOM	0	0.719192578980255	0	0	0	NONE	1658.0	1
830.345703125	0.2	COHERENT	1	0.669921351489393	0	0	0	RIGHT	1661.0	1
831.8154296875	0.2	COHERENT	1	0.839640165555466	0	0	0	RIGHT	1665.0	1
833.515625	0.2	COHERENT	1	0.619540243069423	0	0	180	LEFT	1668.0	1
834.79541015625	0.2	RANDOM	0	0.823405779952736	0	0	0	NONE	1672.0	1
836.28515625	0.2	RANDOM	0	0.788081261273874	0	0	0	NONE	1676.0	1
837.93505859375	0.2	RANDOM	0	0.77489701077684	0	0	0	NONE	1679.0	1
839.51513671875	0.2	COHERENT	1	0.699830484326412	0	0	180	LEFT	1682.0	1
840.93505859375	0.2	RANDOM	0	0.914619459047572	0	0	0	NONE	1686.0	1
842.70458984375	0.2	RANDOM	0	0.839243240501673	0	0	0	NONE	1689.0	1
844.1845703125	0.2	RANDOM	0	1.03797893610863	0	0	0	NONE	1693.0	1
845.83447265625	0.2	COHERENT	1	0.887901120687275	0	0	180	LEFT	1695.0	1
847.55419921875	0.2	RANDOM	0	0.924429393824539	0	0	0	NONE	1698.0	1
849.34423828125	0.2	RANDOM	0	1.00452404007501	0	0	0	NONE	1701.0	1
851.22412109375	0.2	COHERENT	1	0.924167996793585	0	0	180	LEFT	1703.0	1
853.01416015625	0.2	RANDOM	0	1.02906970426466	0	0	0	NONE	1706.0	1
854.82373046875	0.2	COHERENT	1	0.77982854045058	0	0	0	RIGHT	1708.0	1
856.263671875	0.2	RANDOM	0	0.938660741667263	0	0	0	NONE	1712.0	1
857.93359375	0.2	RANDOM	0	0.984152578594149	0	0	0	NONE	1715.0	1
859.66357421875	0.2	RANDOM	0	1.17916985615284	0	0	0	NONE	1718.0	1
861.63330078125	0.2	COHERENT	1	0.849684029546552	0	0	0	RIGHT	1720.0	1
863.373046875	0.2	COHERENT	1	0.923766845922728	0	0	0	RIGHT	1723.0	1
864.9228515625	0.2	RANDOM	0	1.00255028119773	0	0	0	NONE	1726.0	1
866.552734375	0.2	COHERENT	1	1.09334620799291	0	0	0	RIGHT	1728.0	1
868.4228515625	0.2	RANDOM	0	1.06509570874186	0	0	0	NONE	1730.0	1
870.37255859375	0.2	COHERENT	1	1.05981826567586	0	0	0	RIGHT	1732.0	1
872.09228515625	0.2	COHERENT	1	0.957638286877227	0	0	180	LEFT	1734.0	1
873.8125	0.2	COHERENT	1	0.819356540721856	0	0	0	RIGHT	1737.0	1
875.39208984375	0.2	COHERENT	1	0.774183753058423	0	0	180	LEFT	1740.0	1
876.7919921875	0.2	RANDOM	0	1.00308122505248	0	0	0	NONE	1744.0	1
878.591796875	0.2	RANDOM	0	1.16939704820561	0	0	0	NONE	1746.0	1
880.662109375	0.2	COHERENT	1	0.999162080647693	0	0	180	LEFT	1748.0	1
882.26171875	0.2	RANDOM	0	1.1183072097283	0	0	0	NONE	1750.0	1
884.08154296875	0.2	RANDOM	0	1.06807672153718	0	0	0	NONE	1752.0	1
886.00146484375	0.2	COHERENT	1	0.909887750198322	0	0	180	LEFT	1754.0	1
887.67138671875	0.2	COHERENT	1	0.949663564513685	0	0	180	LEFT	1757.0	1
889.39111328125	0.2	COHERENT	1	1.00433538748348	0	0	0	RIGHT	1760.0	1
891.0712890625	0.2	RANDOM	0	1.09373679431883	0	0	0	NONE	1762.0	1
892.89111328125	0.2	RANDOM	0	n/a	0	1	0	NONE	1764.0	0
894.86083984375	0.2	RANDOM	0	1.17492139978458	0	0	0	NONE	1765.0	1
896.890625	0.2	RANDOM	0	1.15843044665689	0	0	0	NONE	1767.0	1
898.7802734375	0.2	COHERENT	1	1.08563107159443	0	0	180	LEFT	1769.0	1
900.73046875	0.2	RANDOM	0	1.10364814872901	0	0	0	NONE	1771.0	1
902.46044921875	0.2	RANDOM	0	0.983405212486105	0	0	0	NONE	1773.0	1
904.14990234375	0.2	RANDOM	0	1.02853000693085	0	0	0	NONE	1776.0	1
905.7998046875	0.2	RANDOM	0	n/a	0	1	0	NONE	1778.0	0
907.6396484375	0.2	COHERENT	1	0.943713612688043	0	0	180	LEFT	1779.0	1
909.24951171875	0.2	COHERENT	1	0.833869810997385	0	0	0	RIGHT	1782.0	1
910.86962890625	0.2	RANDOM	0	0.69459469575304	0	0	0	NONE	1785.0	1
912.3896484375	0.2	COHERENT	1	0.684531513736147	0	0	180	LEFT	1788.0	1
913.88916015625	0.2	RANDOM	0	0.744337705647013	0	0	0	NONE	1792.0	1
915.33935546875	0.2	COHERENT	1	0.81807641969408	0	0	0	RIGHT	1796.0	1
916.85888671875	0.2	COHERENT	1	0.887838638947869	0	0	0	RIGHT	1799.0	1
918.43896484375	0.2	COHERENT	1	0.948349335098101	0	0	0	RIGHT	1802.0	1
920.14892578125	0.2	COHERENT	1	0.849542766486593	0	0	180	LEFT	1805.0	1
921.77880859375	0.2	RANDOM	0	0.764301375685136	0	0	0	NONE	1808.0	1
923.32861328125	0.2	COHERENT	1	0.639867937148665	0	0	180	LEFT	1811.0	1
924.87841796875	0.2	COHERENT	1	0.68884516844173	0	0	180	LEFT	1814.0	1
926.1982421875	0.2	COHERENT	1	0.742800413406258	0	0	0	RIGHT	1818.0	1
927.76806640625	0.2	COHERENT	1	0.57457542602333	0	0	0	RIGHT	1821.0	1
929.21826171875	0.2	RANDOM	0	0.744354307073991	0	0	0	NONE	1825.0	1
930.73828125	0.2	RANDOM	0	0.615119433692598	0	0	0	NONE	1828.0	1
932.01806640625	0.2	COHERENT	1	0.712881319710505	0	0	0	RIGHT	1832.0	1
933.48779296875	0.2	COHERENT	1	0.669832911154117	0	0	0	RIGHT	1836.0	1
934.85791015625	0.2	COHERENT	1	0.80761208680542	0	0	180	LEFT	1840.0	1
936.32763671875	0.2	COHERENT	1	0.748337744282253	0	0	0	RIGHT	1844.0	1
937.9375	0.2	COHERENT	1	0.584177088338947	0	0	180	LEFT	1847.0	1
939.42724609375	0.2	COHERENT	1	0.559945040217826	0	0	0	RIGHT	1851.0	1
940.87744140625	0.2	COHERENT	1	0.51987311679386	0	0	180	LEFT	1855.0	1
942.107421875	0.2	COHERENT	1	0.737593300025765	0	0	180	LEFT	1859.0	1
943.6669921875	0.2	RANDOM	0	0.794410329347556	0	0	0	NONE	1862.0	1
945.19677734375	0.2	COHERENT	1	0.614288154911264	0	0	180	LEFT	1865.0	1
946.5869140625	0.2	RANDOM	0	0.634109354512475	0	0	0	NONE	1869.0	1
948.0166015625	0.2	COHERENT	1	0.509840421036643	0	0	180	LEFT	1873.0	1
949.3466796875	0.2	RANDOM	0	0.804626546348118	0	0	0	NONE	1877.0	1
950.986328125	0.2	COHERENT	1	0.604564849403687	0	0	180	LEFT	1880.0	1
952.25634765625	0.2	RANDOM	0	0.773104660232093	0	0	0	NONE	1884.0	1
953.63623046875	0.2	RANDOM	0	0.848110516008092	0	0	0	NONE	1888.0	1
955.13623046875	0.2	COHERENT	1	0.82792468867774	0	0	180	LEFT	1892.0	1
956.68603515625	0.2	COHERENT	1	0.654820088814631	0	0	180	LEFT	1895.0	1
958.0458984375	0.2	RANDOM	0	0.708698665365773	0	0	0	NONE	1899.0	1
959.47607421875	0.2	COHERENT	1	0.624418346328639	0	0	180	LEFT	1903.0	1
960.7255859375	0.2	COHERENT	1	0.673197266016359	0	0	0	RIGHT	1907.0	1
962.17578125	0.2	COHERENT	1	0.704062942955716	0	0	0	RIGHT	1911.0	1
963.515625	0.2	RANDOM	0	0.732849517411523	0	0	0	NONE	1915.0	1
965.115234375	0.2	RANDOM	0	0.724760999803948	0	0	0	NONE	1918.0	1
966.5654296875	0.2	RANDOM	0	0.764550698951098	0	0	0	NONE	1922.0	1
967.96533203125	0.2	RANDOM	0	0.92330743913044	0	0	0	NONE	1926.0	1
969.48486328125	0.2	RANDOM	0	0.868205790095089	0	0	0	NONE	1929.0	1
971.0849609375	0.2	RANDOM	0	0.89460115521797	0	0	0	NONE	1932.0	1
972.71484375	0.2	RANDOM	0	0.729763764696145	0	0	0	NONE	1935.0	1
974.3544921875	0.2	COHERENT	1	0.589561987921115	0	0	0	RIGHT	1938.0	1
975.6845703125	0.2	COHERENT	1	0.639297451711172	0	0	0	RIGHT	1942.0	1
977.154296875	0.2	RANDOM	0	0.793725143133997	0	0	0	NONE	1946.0	1
978.57421875	0.2	RANDOM	0	0.734015541351255	0	0	0	NONE	1950.0	1
980.2041015625	0.2	RANDOM	0	0.780757013046241	0	0	0	NONE	1953.0	1
981.6943359375	0.2	RANDOM	0	0.868539629721454	0	0	0	NONE	1957.0	1
983.44384765625	0.2	COHERENT	1	0.664326066535978	0	0	180	LEFT	1960.0	1
984.94384765625	0.2	RANDOM	0	0.688887124777466	0	0	0	NONE	1964.0	1
986.4638671875	0.2	RANDOM	0	0.714870774483643	0	0	0	NONE	1967.0	1
987.91357421875	0.2	RANDOM	0	0.824777359757718	0	0	0	NONE	1971.0	1
989.3837890625	0.2	RANDOM	0	1.02886052627218	0	0	0	NONE	1975.0	1
991.3134765625	0.2	RANDOM	0	0.889174299298247	0	0	0	NONE	1977.0	1
992.93310546875	0.2	RANDOM	0	0.724080944941306	0	0	0	NONE	1980.0	1
994.47314453125	0.2	COHERENT	1	0.555741860470334	0	0	180	LEFT	1983.0	1
995.73291015625	0.2	COHERENT	1	0.567874184115681	0	0	0	RIGHT	1987.0	1
997.123046875	0.2	RANDOM	0	0.564578649718896	0	0	0	NONE	1991.0	1
998.54296875	0.2	COHERENT	1	0.44949151335004	0	0	180	LEFT	1995.0	1
999.8427734375	0.2	RANDOM	0	0.529121621459126	0	0	0	NONE	1999.0	1
1001.142578125	0.2	RANDOM	0	0.623827637333306	0	0	0	NONE	2003.0	1
1002.642578125	0.2	RANDOM	0	0.935676408586005	0	0	0	NONE	2007.0	1
1004.37255859375	0.2	RANDOM	0	0.768612313792801	0	0	0	NONE	2010.0	1
1005.84228515625	0.2	COHERENT	1	0.528570454045621	0	0	180	LEFT	2014.0	1
1007.18212890625	0.2	RANDOM	0	0.529314198023712	0	0	0	NONE	2018.0	1
1008.43212890625	0.2	RANDOM	0	0.604210786219483	0	0	0	NONE	2022.0	1
1009.912109375	0.2	RANDOM	0	0.51502549979341	0	0	0	NONE	2026.0	1
1011.33203125	0.2	RANDOM	0	0.649591544500254	0	0	0	NONE	2030.0	1
1012.78173828125	0.2	COHERENT	1	0.539627910683521	0	0	0	RIGHT	2034.0	1
1014.0517578125	0.2	COHERENT	1	0.534972266559635	0	0	0	RIGHT	2038.0	1
1015.20166015625	0.2	COHERENT	1	0.60228954822378	0	0	0	RIGHT	2042.0	1
1016.70166015625	0.2	COHERENT	1	0.599065550889463	0	0	0	RIGHT	2046.0	1
1018.19140625	0.2	COHERENT	1	0.56570754682798	0	0	0	RIGHT	2050.0	1
1019.50146484375	0.2	COHERENT	1	0.538658085438328	0	0	0	RIGHT	2054.0	1
1020.84130859375	0.2	COHERENT	1	0.659582585765747	0	0	180	LEFT	2058.0	1
1022.37109375	0.2	RANDOM	0	0.714324738421965	0	0	0	NONE	2061.0	1
