onset	duration	trial_type	trial_type_id	response_time	repsonse_accuracy	bad_epoch	outliers	direction	name_direction	event_num
17.0263671875	0.2	RANDOM	0	0.770467626202844	1	0	0	0	NONE	1
18.58642578125	0.2	COHERENT	1	0.649379351811149	1	0	0	0	RIGHT	4
19.92626953125	0.2	RANDOM	0	0.533672020544145	1	0	0	0	NONE	8
21.2060546875	0.2	COHERENT	1	0.51800942231057	1	0	0	0	RIGHT	12
22.42626953125	0.2	RANDOM	0	0.477895482868917	1	0	0	0	NONE	16
23.61572265625	0.2	COHERENT	1	0.627698621305171	1	0	0	0	RIGHT	20
25.02587890625	0.2	RANDOM	0	0.609591402081605	1	0	0	0	NONE	24
26.4658203125	0.2	COHERENT	1	0.554380818764912	1	0	0	180	LEFT	28
27.78564453125	0.2	COHERENT	1	NaN	0	0	1	0	RIGHT	32
29.21533203125	0.2	COHERENT	1	NaN	0	0	1	0	RIGHT	36
30.58544921875	0.2	COHERENT	1	NaN	0	0	1	0	RIGHT	40
31.8154296875	0.2	COHERENT	1	0.758665289460623	1	0	0	0	RIGHT	44
33.205078125	0.2	RANDOM	0	0.583463326761375	1	0	0	0	NONE	48
34.60498046875	0.2	COHERENT	1	0.634290555835832	1	0	0	180	LEFT	52
35.98486328125	0.2	COHERENT	1	0.819031641527545	1	0	0	180	LEFT	56
37.4248046875	0.2	RANDOM	0	0.657944731463431	1	0	0	0	NONE	60
38.875	0.2	RANDOM	0	0.629582721096995	1	0	0	0	NONE	64
40.20458984375	0.2	COHERENT	1	0.558532659943012	1	0	0	180	LEFT	68
41.3544921875	0.2	COHERENT	1	NaN	0	0	1	180	LEFT	72
43.0146484375	0.2	RANDOM	0	0.609218928652808	1	0	0	0	NONE	75
44.4443359375	0.2	COHERENT	1	0.554027663245506	1	0	0	180	LEFT	79
45.744140625	0.2	COHERENT	1	0.849503529743743	1	0	0	180	LEFT	83
47.31396484375	0.2	RANDOM	0	0.71465064165659	1	0	0	0	NONE	86
48.9140625	0.2	RANDOM	0	0.864469777735394	1	0	0	0	NONE	89
50.3837890625	0.2	RANDOM	0	0.887936509278006	1	0	0	0	NONE	93
51.8837890625	0.2	COHERENT	1	0.634063570409126	1	0	0	180	LEFT	97
53.36376953125	0.2	RANDOM	0	0.769918273172152	1	0	0	0	NONE	101
54.82373046875	0.2	COHERENT	1	0.602682231266044	1	0	0	180	LEFT	105
56.2734375	0.2	RANDOM	0	0.649504918218554	1	0	0	0	NONE	109
57.72314453125	0.2	COHERENT	1	0.578833367340849	1	0	0	180	LEFT	113
59.00341796875	0.2	RANDOM	0	0.68818782319795	1	0	0	0	NONE	117
60.47314453125	0.2	RANDOM	0	0.683947240377165	1	0	0	0	NONE	121
61.7529296875	0.2	RANDOM	0	0.657899455113693	1	0	0	0	NONE	125
63.1630859375	0.2	COHERENT	1	0.648638932588256	1	0	0	180	LEFT	129
64.642578125	0.2	RANDOM	0	0.57446872732362	1	0	0	0	NONE	133
65.8427734375	0.2	COHERENT	1	0.533376818751094	1	0	0	180	LEFT	137
67.24267578125	0.2	RANDOM	0	0.624040594170765	1	0	0	0	NONE	141
68.74267578125	0.2	COHERENT	1	0.605070105898449	1	0	0	0	RIGHT	145
70.0322265625	0.2	COHERENT	1	0.602745316312394	1	0	0	180	LEFT	149
71.43212890625	0.2	COHERENT	1	0.63032193295021	1	0	0	180	LEFT	153
72.76220703125	0.2	RANDOM	0	0.617192395505299	1	0	0	0	NONE	157
73.98193359375	0.2	COHERENT	1	0.628254011182435	1	0	0	180	LEFT	161
NaN	0.2	RANDOM	0	0.789016138905936	1	1	0	0	NONE	NaN
76.921875	0.2	COHERENT	1	0.554953413655312	1	0	0	0	RIGHT	164
78.181640625	0.2	RANDOM	0	0.738668235441764	1	0	0	0	NONE	168
79.57177734375	0.2	COHERENT	1	0.548466822095179	1	0	0	0	RIGHT	172
80.9716796875	0.2	RANDOM	0	0.669429228237277	1	0	0	0	NONE	176
82.37158203125	0.2	RANDOM	0	0.784222882787617	1	0	0	0	NONE	180
83.771484375	0.2	RANDOM	0	0.842952947611593	1	0	0	0	NONE	184
85.47119140625	0.2	COHERENT	1	0.569458446574572	1	0	0	0	RIGHT	187
86.81103515625	0.2	RANDOM	0	0.794599316387576	1	0	0	0	NONE	191
88.4609375	0.2	RANDOM	0	0.609397317467483	1	0	0	0	NONE	194
89.91064453125	0.2	RANDOM	0	0.738942308273181	1	0	0	0	NONE	198
91.41064453125	0.2	RANDOM	0	0.729989363076129	1	0	0	0	NONE	202
NaN	0.2	RANDOM	0	0.727753013292386	1	1	0	0	NONE	NaN
94.1005859375	0.2	COHERENT	1	0.623689551546704	1	0	0	180	LEFT	206
95.50048828125	0.2	COHERENT	1	0.664503161497123	1	0	0	180	LEFT	210
96.8203125	0.2	RANDOM	0	0.698254868415461	1	0	0	0	NONE	214
98.13037109375	0.2	COHERENT	1	0.703224098608189	1	0	0	0	RIGHT	218
99.490234375	0.2	COHERENT	1	0.647973672104854	1	0	0	0	RIGHT	222
100.8701171875	0.2	COHERENT	1	0.634716153515001	1	0	0	180	LEFT	226
102.2099609375	0.2	RANDOM	0	0.588704215046164	1	0	0	0	NONE	230
103.4697265625	0.2	RANDOM	0	0.713434518930626	1	0	0	0	NONE	234
105.01953125	0.2	RANDOM	0	0.83908544190308	1	0	0	0	NONE	237
106.6796875	0.2	COHERENT	1	0.63012513175363	1	0	0	0	RIGHT	240
107.9892578125	0.2	RANDOM	0	0.597931233074632	1	0	0	0	NONE	244
109.33935546875	0.2	COHERENT	1	0.579686373750519	1	0	0	0	RIGHT	248
110.609375	0.2	RANDOM	0	0.963504244507021	1	0	0	0	NONE	252
NaN	0.2	RANDOM	0	0.574380589365319	1	1	0	0	NONE	NaN
NaN	0.2	COHERENT	1	0.608753487787908	1	1	0	180	LEFT	NaN
115.1787109375	0.2	RANDOM	0	0.629801556781786	1	0	0	0	NONE	256
116.548828125	0.2	RANDOM	0	0.949734801332852	1	0	0	0	NONE	260
118.3388671875	0.2	COHERENT	1	0.704600197766922	1	0	0	180	LEFT	263
119.66845703125	0.2	COHERENT	1	0.813250757321839	1	0	0	0	RIGHT	267
121.3681640625	0.2	RANDOM	0	0.609029069831195	1	0	0	0	NONE	270
122.6884765625	0.2	RANDOM	0	0.778681661387964	1	0	0	0	NONE	274
124.16796875	0.2	COHERENT	1	0.537683203198867	1	0	0	180	LEFT	278
125.60791015625	0.2	RANDOM	0	0.549477390199172	1	0	0	0	NONE	282
126.97802734375	0.2	COHERENT	1	0.564448769508999	1	0	0	0	RIGHT	286
128.177734375	0.2	COHERENT	1	0.83302807012933	1	0	0	0	RIGHT	290
129.677734375	0.2	COHERENT	1	0.642987840584283	1	0	0	0	RIGHT	294
131.02783203125	0.2	RANDOM	0	0.68789865825056	1	0	0	0	NONE	298
132.3076171875	0.2	RANDOM	0	0.778678944807325	1	0	0	0	NONE	302
133.82763671875	0.2	COHERENT	1	0.684482104975359	1	0	0	180	LEFT	305
135.3271484375	0.2	COHERENT	1	0.674422002131905	1	0	0	180	LEFT	309
136.6669921875	0.2	COHERENT	1	0.758159703566889	1	0	0	180	LEFT	313
138.21728515625	0.2	RANDOM	0	0.599965348501428	1	0	0	0	NONE	316
139.5869140625	0.2	COHERENT	1	0.604869984436846	1	0	0	0	RIGHT	320
141.046875	0.2	COHERENT	1	0.669628746014496	1	0	0	0	RIGHT	324
142.48681640625	0.2	RANDOM	0	0.664424380649507	1	0	0	0	NONE	328
143.7568359375	0.2	COHERENT	1	0.677968045763919	1	0	0	180	LEFT	332
145.056640625	0.2	RANDOM	0	0.65299995049736	1	0	0	0	NONE	336
146.42626953125	0.2	RANDOM	0	0.887915380314553	1	0	0	0	NONE	340
147.90625	0.2	RANDOM	0	0.788681093924424	1	0	0	0	NONE	344
149.2861328125	0.2	COHERENT	1	0.738459662395144	1	0	0	180	LEFT	348
150.65625	0.2	RANDOM	0	0.713297180672271	1	0	0	0	NONE	352
152.17578125	0.2	COHERENT	1	0.669182924900269	1	0	0	0	RIGHT	355
153.49609375	0.2	RANDOM	0	0.688004604906382	1	0	0	0	NONE	359
154.9658203125	0.2	RANDOM	0	0.784824756383387	1	0	0	0	NONE	363
156.61572265625	0.2	RANDOM	0	0.614528033303941	1	0	0	0	NONE	366
157.96533203125	0.2	RANDOM	0	0.704412753683755	1	0	0	0	NONE	370
159.265625	0.2	COHERENT	1	0.848194137738574	1	0	0	180	LEFT	374
160.96533203125	0.2	COHERENT	1	0.709043618630858	1	0	0	0	RIGHT	377
162.5654296875	0.2	COHERENT	1	0.619921653806159	1	0	0	0	RIGHT	380
163.9052734375	0.2	RANDOM	0	0.758653215768391	1	0	0	0	NONE	384
165.384765625	0.2	COHERENT	1	0.74440354145554	1	0	0	0	RIGHT	388
166.85498046875	0.2	COHERENT	1	0.744196175778598	1	0	0	0	RIGHT	392
168.1845703125	0.2	RANDOM	0	NaN	0	0	1	0	NONE	396
169.79443359375	0.2	RANDOM	0	0.620333064895021	1	0	0	0	NONE	399
171.00439453125	0.2	RANDOM	0	0.707693477911562	1	0	0	0	NONE	403
172.45458984375	0.2	RANDOM	0	0.739538145022379	1	0	0	0	NONE	407
173.91455078125	0.2	COHERENT	1	0.608438062558889	1	0	0	0	RIGHT	411
175.3642578125	0.2	COHERENT	1	0.569200069544422	1	0	0	0	RIGHT	415
176.77392578125	0.2	COHERENT	1	0.640000205252363	1	0	0	180	LEFT	419
178.18408203125	0.2	COHERENT	1	0.639909350712514	1	0	0	0	RIGHT	423
179.53369140625	0.2	RANDOM	0	0.604672881398983	1	0	0	0	NONE	427
180.99365234375	0.2	COHERENT	1	0.609469457783234	1	0	0	180	LEFT	431
182.23388671875	0.2	COHERENT	1	0.703225909662251	1	0	0	0	RIGHT	435
183.6337890625	0.2	COHERENT	1	0.728162311484084	1	0	0	0	RIGHT	439
185.18359375	0.2	RANDOM	0	0.624961213261486	1	0	0	0	NONE	442
186.47314453125	0.2	RANDOM	0	0.717759013918112	1	0	0	0	NONE	446
188.00341796875	0.2	COHERENT	1	0.614795163761301	1	0	0	0	RIGHT	449
189.47314453125	0.2	RANDOM	0	0.609410598529394	1	0	0	0	NONE	453
190.84326171875	0.2	RANDOM	0	0.629199683186926	1	0	0	0	NONE	457
192.35302734375	0.2	COHERENT	1	0.599005791750642	1	0	0	0	RIGHT	460
193.66259765625	0.2	COHERENT	1	0.687767054996584	1	0	0	180	LEFT	464
195.2626953125	0.2	RANDOM	0	0.559672718404727	1	0	0	0	NONE	467
196.66259765625	0.2	COHERENT	1	0.529076169306791	1	0	0	180	LEFT	471
197.84228515625	0.2	RANDOM	0	0.638257669512313	1	0	0	0	NONE	475
199.38232421875	0.2	RANDOM	0	0.57003073962187	1	0	0	0	NONE	478
200.6923828125	0.2	COHERENT	1	0.549723391693988	1	0	0	180	LEFT	482
202.13232421875	0.2	COHERENT	1	0.504711758690064	1	0	0	180	LEFT	486
203.4521484375	0.2	COHERENT	1	0.464519642086998	1	0	0	180	LEFT	490
204.751953125	0.2	RANDOM	0	0.544433604951337	1	0	0	0	NONE	494
206.03173828125	0.2	RANDOM	0	0.649265557255603	1	0	0	0	NONE	498
207.28173828125	0.2	COHERENT	1	0.638014988282521	1	0	0	180	LEFT	502
208.75146484375	0.2	RANDOM	0	0.814897307203864	1	0	0	0	NONE	506
210.3916015625	0.2	COHERENT	1	0.764428666811	1	0	0	0	RIGHT	509
211.75146484375	0.2	RANDOM	0	0.858226169246336	1	0	0	0	NONE	513
213.271484375	0.2	COHERENT	1	0.998974641623136	1	0	0	180	LEFT	516
215.14111328125	0.2	COHERENT	1	0.64276870305639	1	0	0	0	RIGHT	518
216.6611328125	0.2	RANDOM	0	0.634915369449118	1	0	0	0	NONE	521
218.19091796875	0.2	COHERENT	1	0.629673273793742	1	0	0	0	RIGHT	524
219.48095703125	0.2	RANDOM	0	0.78851176038097	1	0	0	0	NONE	528
220.9609375	0.2	RANDOM	0	0.69837077586817	1	0	0	0	NONE	532
222.55078125	0.2	RANDOM	0	0.64401953764991	1	0	0	0	NONE	535
224.08056640625	0.2	COHERENT	1	0.579935997353459	1	0	0	0	RIGHT	538
225.55029296875	0.2	RANDOM	0	0.564714390755398	1	0	0	0	NONE	542
226.72021484375	0.2	COHERENT	1	0.838257186564078	1	0	0	180	LEFT	546
228.30029296875	0.2	COHERENT	1	0.689386439069494	1	0	0	0	RIGHT	549
281.27587890625	0.2	RANDOM	0	0.579123437814815	1	0	0	0	NONE	551
282.6259765625	0.2	COHERENT	1	0.434276550352479	1	0	0	180	LEFT	555
283.65576171875	0.2	COHERENT	1	0.658217295082068	1	0	0	180	LEFT	559
285.2255859375	0.2	COHERENT	1	0.618991677603844	1	0	0	180	LEFT	562
286.5654296875	0.2	RANDOM	0	0.534819926905584	1	0	0	0	NONE	566
287.9853515625	0.2	RANDOM	0	0.524746844842412	1	0	0	0	NONE	570
289.33544921875	0.2	RANDOM	0	0.49456653631114	1	0	0	0	NONE	574
290.71533203125	0.2	COHERENT	1	0.639049401929697	1	0	0	0	RIGHT	578
292.18505859375	0.2	RANDOM	0	0.514244241149754	1	0	0	0	NONE	582
293.43505859375	0.2	RANDOM	0	0.553999893752007	1	0	0	0	NONE	586
294.8349609375	0.2	COHERENT	1	0.490785055665583	1	0	0	0	RIGHT	590
295.97509765625	0.2	RANDOM	0	0.578576499522569	1	0	0	0	NONE	594
297.3046875	0.2	COHERENT	1	0.489469626814753	1	0	0	0	RIGHT	598
298.474609375	0.2	RANDOM	0	0.553263096637238	1	0	0	0	NONE	602
299.9248046875	0.2	COHERENT	1	0.569235385096363	1	0	0	180	LEFT	606
301.14453125	0.2	COHERENT	1	0.598000958651028	1	0	0	180	LEFT	610
302.62451171875	0.2	RANDOM	0	0.524909236012718	1	0	0	0	NONE	614
304.01416015625	0.2	COHERENT	1	0.534701604714428	1	0	0	0	RIGHT	618
305.3642578125	0.2	COHERENT	1	NaN	0	0	1	0	RIGHT	622
307.1142578125	0.2	RANDOM	0	0.588851514101407	1	0	0	0	NONE	625
308.43408203125	0.2	RANDOM	0	0.875030938837881	1	0	0	0	NONE	629
310.19384765625	0.2	COHERENT	1	0.489906090816476	1	0	0	180	LEFT	632
311.3134765625	0.2	COHERENT	1	NaN	0	0	1	180	LEFT	636
313.11376953125	0.2	COHERENT	1	0.693134415216264	1	0	0	180	LEFT	638
314.43359375	0.2	RANDOM	0	0.643145402276787	1	0	0	0	NONE	642
315.8232421875	0.2	RANDOM	0	0.620149544762171	1	0	0	0	NONE	646
317.283203125	0.2	COHERENT	1	0.57990520943622	1	0	0	0	RIGHT	650
NaN	0.2	COHERENT	1	0.568771755285525	1	1	0	180	LEFT	NaN
320.123046875	0.2	RANDOM	0	0.554501555695424	1	0	0	0	NONE	654
321.4931640625	0.2	COHERENT	1	0.614432952972493	1	0	0	180	LEFT	658
322.95263671875	0.2	RANDOM	0	0.519250597950304	1	0	0	0	NONE	662
324.12255859375	0.2	COHERENT	1	0.608007333560636	1	0	0	0	RIGHT	666
325.5126953125	0.2	RANDOM	0	0.564958883038344	1	0	0	0	NONE	670
326.72265625	0.2	COHERENT	1	0.667709934355116	1	0	0	180	LEFT	674
328.2421875	0.2	RANDOM	0	0.529496333822863	1	0	0	0	NONE	677
329.662109375	0.2	COHERENT	1	0.564300866771191	1	0	0	180	LEFT	681
330.96240234375	0.2	RANDOM	0	0.529269650237438	1	0	0	0	NONE	685
332.33203125	0.2	RANDOM	0	0.484967648539168	1	0	0	0	NONE	689
333.61181640625	0.2	RANDOM	0	0.529810249840921	1	0	0	0	NONE	693
334.76171875	0.2	COHERENT	1	0.712414895556321	1	0	0	0	RIGHT	697
336.20166015625	0.2	RANDOM	0	0.524304343994118	1	0	0	0	NONE	701
337.6318359375	0.2	RANDOM	0	0.529277498138072	1	0	0	0	NONE	705
339.0517578125	0.2	RANDOM	0	0.459195445319892	1	0	0	0	NONE	709
340.12158203125	0.2	COHERENT	1	0.557985721650766	1	0	0	0	RIGHT	713
341.47119140625	0.2	RANDOM	0	0.529882993841966	1	0	0	0	NONE	717
342.75146484375	0.2	RANDOM	0	0.599722365429443	1	0	0	0	NONE	721
344.01123046875	0.2	RANDOM	0	0.708465590579181	1	0	0	0	NONE	725
345.44091796875	0.2	RANDOM	0	0.614409107428401	1	0	0	0	NONE	729
346.9111328125	0.2	RANDOM	0	0.639042157713448	1	0	0	0	NONE	733
348.24072265625	0.2	RANDOM	0	0.527986216671707	1	0	0	0	NONE	737
349.560546875	0.2	RANDOM	0	0.594733515485132	1	0	0	0	NONE	741
351.03076171875	0.2	RANDOM	0	0.554557094682423	1	0	0	0	NONE	745
352.33056640625	0.2	COHERENT	1	0.639350640570228	1	0	0	180	LEFT	749
353.6103515625	0.2	RANDOM	0	0.578244774807899	1	0	0	0	NONE	753
355.10009765625	0.2	COHERENT	1	0.609009450079611	1	0	0	180	LEFT	757
356.5703125	0.2	COHERENT	1	0.549784062000981	1	0	0	180	LEFT	761
358	0.2	RANDOM	0	0.459586029288403	1	0	0	0	NONE	765
359.22021484375	0.2	RANDOM	0	0.59948843762777	1	0	0	0	NONE	769
360.52001953125	0.2	RANDOM	0	0.618302269733249	1	0	0	0	NONE	773
361.86962890625	0.2	COHERENT	1	0.55380792203232	1	0	0	0	RIGHT	777
363.28955078125	0.2	COHERENT	1	0.574499213398667	1	0	0	0	RIGHT	781
364.61962890625	0.2	COHERENT	1	0.688948465855901	1	0	0	0	RIGHT	785
366.15966796875	0.2	RANDOM	0	0.589585292792435	1	0	0	0	NONE	788
367.62939453125	0.2	COHERENT	1	0.524465225952554	1	0	0	0	RIGHT	792
368.92919921875	0.2	RANDOM	0	0.614243697834354	1	0	0	0	NONE	796
370.43896484375	0.2	RANDOM	0	0.509052855005393	1	0	0	0	NONE	799
371.64892578125	0.2	RANDOM	0	0.577818875287448	1	0	0	0	NONE	803
373.02880859375	0.2	RANDOM	0	0.609749567460312	1	0	0	0	NONE	807
374.2587890625	0.2	COHERENT	1	0.793572146955739	1	0	0	0	RIGHT	811
375.728515625	0.2	COHERENT	1	0.763453112416755	1	0	0	0	RIGHT	815
377.1484375	0.2	COHERENT	1	0.838248131294677	1	0	0	180	LEFT	819
378.6884765625	0.2	COHERENT	1	0.848011221290108	1	0	0	180	LEFT	822
380.1884765625	0.2	COHERENT	1	0.897742460884729	1	0	0	0	RIGHT	826
381.76806640625	0.2	COHERENT	1	0.853283803019622	1	0	0	0	RIGHT	829
383.3681640625	0.2	RANDOM	0	0.849206215054437	1	0	0	0	NONE	832
384.98779296875	0.2	COHERENT	1	0.793974804617392	1	0	0	180	LEFT	835
386.4580078125	0.2	RANDOM	0	0.773125347873247	1	0	0	0	NONE	839
388.10791015625	0.2	COHERENT	1	0.624976607219651	1	0	0	0	RIGHT	842
389.5078125	0.2	RANDOM	0	0.784545250389783	1	0	0	0	NONE	846
391.04736328125	0.2	RANDOM	0	0.61006921848184	1	0	0	0	NONE	849
392.3076171875	0.2	COHERENT	1	0.667247511913956	1	0	0	0	RIGHT	853
393.87744140625	0.2	COHERENT	1	0.81900749414126	1	0	0	180	LEFT	856
395.46728515625	0.2	COHERENT	1	0.624784937343975	1	0	0	180	LEFT	859
396.89697265625	0.2	RANDOM	0	0.599343553311883	1	0	0	0	NONE	863
398.19677734375	0.2	COHERENT	1	0.71847951154632	1	0	0	0	RIGHT	867
399.6669921875	0.2	COHERENT	1	0.659271026638635	1	0	0	180	LEFT	871
401.03662109375	0.2	RANDOM	0	0.678039280552184	1	0	0	0	NONE	875
402.38671875	0.2	RANDOM	0	0.733219981479124	1	0	0	0	NONE	879
403.91650390625	0.2	COHERENT	1	0.589763983449302	1	0	0	0	RIGHT	882
405.1064453125	0.2	COHERENT	1	0.61855340254715	1	0	0	180	LEFT	886
406.6064453125	0.2	RANDOM	0	0.504495941428104	1	0	0	0	NONE	890
407.80615234375	0.2	COHERENT	1	0.568259830703028	1	0	0	0	RIGHT	894
409.1259765625	0.2	RANDOM	0	0.559033416359853	1	0	0	0	NONE	898
410.40625	0.2	RANDOM	0	0.634870998626866	1	0	0	0	NONE	902
411.94580078125	0.2	COHERENT	1	0.638727939853197	1	0	0	0	RIGHT	905
413.32568359375	0.2	RANDOM	0	0.519520143145201	1	0	0	0	NONE	909
414.57568359375	0.2	RANDOM	0	0.664351032964987	1	0	0	0	NONE	913
416.095703125	0.2	RANDOM	0	0.519260860588474	1	0	0	0	NONE	916
417.515625	0.2	COHERENT	1	0.700009176006461	1	0	0	180	LEFT	920
419.015625	0.2	RANDOM	0	0.580645024973819	1	0	0	0	NONE	924
420.365234375	0.2	COHERENT	1	0.79356339352853	1	0	0	180	LEFT	928
421.8349609375	0.2	RANDOM	0	0.553521775508671	1	0	0	0	NONE	932
423.1552734375	0.2	COHERENT	1	0.629263070074558	1	0	0	0	RIGHT	936
424.51513671875	0.2	RANDOM	0	0.768004592832767	1	0	0	0	NONE	940
425.97509765625	0.2	RANDOM	0	0.793813620815854	1	0	0	0	NONE	944
427.384765625	0.2	RANDOM	0	0.873704341821394	1	0	0	0	NONE	948
429.08447265625	0.2	COHERENT	1	0.794118179722318	1	0	0	0	RIGHT	951
430.79443359375	0.2	COHERENT	1	0.880290843189869	1	0	0	180	LEFT	954
432.404296875	0.2	RANDOM	0	0.739640469570077	1	0	0	0	NONE	957
433.92431640625	0.2	COHERENT	1	0.803813355195416	1	0	0	180	LEFT	960
435.51416015625	0.2	COHERENT	1	0.834570182566495	1	0	0	0	RIGHT	963
436.994140625	0.2	COHERENT	1	0.808498249918557	1	0	0	180	LEFT	967
438.48388671875	0.2	COHERENT	1	0.843262335994041	1	0	0	180	LEFT	971
439.98388671875	0.2	COHERENT	1	0.837857245483065	1	0	0	180	LEFT	975
441.5634765625	0.2	COHERENT	1	0.789950642742951	1	0	0	180	LEFT	978
443.03369140625	0.2	RANDOM	0	0.683746515230268	1	0	0	0	NONE	982
444.51318359375	0.2	COHERENT	1	0.840599181162361	1	0	0	0	RIGHT	986
446.033203125	0.2	RANDOM	0	0.742290645182038	1	0	0	0	NONE	989
447.623046875	0.2	COHERENT	1	0.669074563505092	1	0	0	0	RIGHT	992
448.98291015625	0.2	COHERENT	1	0.6587373694083	1	0	0	0	RIGHT	996
450.52294921875	0.2	RANDOM	0	0.734807370265116	1	0	0	0	NONE	999
452.052734375	0.2	RANDOM	0	0.819563185860716	1	0	0	0	NONE	1002
453.72265625	0.2	COHERENT	1	0.799332807725477	1	0	0	180	LEFT	1005
455.37255859375	0.2	RANDOM	0	0.679071883145298	1	0	0	0	NONE	1008
456.8125	0.2	COHERENT	1	0.859996172639512	1	0	0	180	LEFT	1012
458.54248046875	0.2	RANDOM	0	0.674744067892789	1	0	0	0	NONE	1015
460.1123046875	0.2	RANDOM	0	0.699504797482405	1	0	0	0	NONE	1018
461.7021484375	0.2	COHERENT	1	0.674214938298064	1	0	0	0	RIGHT	1021
463.10205078125	0.2	RANDOM	0	0.68387600558799	1	0	0	0	NONE	1025
464.40185546875	0.2	COHERENT	1	0.793929226426371	1	0	0	180	LEFT	1029
466.07177734375	0.2	COHERENT	1	0.634776521979802	1	0	0	180	LEFT	1032
467.4814453125	0.2	RANDOM	0	0.714593291614619	1	0	0	0	NONE	1036
468.92138671875	0.2	COHERENT	1	0.704263039890975	1	0	0	0	RIGHT	1040
470.29150390625	0.2	COHERENT	1	0.738227243805341	1	0	0	0	RIGHT	1044
471.87109375	0.2	COHERENT	1	0.680054078071407	1	0	0	0	RIGHT	1047
473.27099609375	0.2	COHERENT	1	0.714853781541024	1	0	0	180	LEFT	1051
474.7109375	0.2	RANDOM	0	0.644567683311834	1	0	0	0	NONE	1055
476.11083984375	0.2	RANDOM	0	0.619521712726055	1	0	0	0	NONE	1059
477.380859375	0.2	COHERENT	1	0.878226543531127	1	0	0	180	LEFT	1063
478.890625	0.2	RANDOM	0	0.863063494343805	1	0	0	0	NONE	1066
480.4404296875	0.2	RANDOM	0	0.837974662147644	1	0	0	0	NONE	1069
482.060546875	0.2	COHERENT	1	0.89470954920489	1	0	0	0	RIGHT	1072
483.8603515625	0.2	RANDOM	0	0.639504881998619	1	0	0	0	NONE	1075
485.25048828125	0.2	COHERENT	1	NaN	0	0	1	0	RIGHT	1079
486.7001953125	0.2	COHERENT	1	0.863073455140693	1	0	0	180	LEFT	1083
488.4501953125	0.2	COHERENT	1	0.699963899657632	1	0	0	0	RIGHT	1086
490.0400390625	0.2	COHERENT	1	0.834576219413066	1	0	0	0	RIGHT	1089
491.56982421875	0.2	COHERENT	1	1.06842644766584	1	0	0	180	LEFT	1092
493.23974609375	0.2	RANDOM	0	0.648351578695838	1	0	0	0	NONE	1094
494.53955078125	0.2	RANDOM	0	0.738061532369102	1	0	0	0	NONE	1098
546.275390625	0.2	RANDOM	0	0.730096517101629	1	0	0	0	NONE	1100
547.66552734375	0.2	RANDOM	0	0.608281708234244	1	0	0	0	NONE	1104
549.0654296875	0.2	COHERENT	1	0.489045538347455	1	0	0	180	LEFT	1108
550.28515625	0.2	COHERENT	1	0.484907581917469	1	0	0	0	RIGHT	1112
551.53515625	0.2	COHERENT	1	0.544797324952924	1	0	0	180	LEFT	1116
552.71484375	0.2	COHERENT	1	0.663553263700123	1	0	0	0	RIGHT	1120
554.26513671875	0.2	COHERENT	1	0.679344446765754	1	0	0	180	LEFT	1123
NaN	0.2	RANDOM	0	0.744135807313796	1	1	0	0	NONE	NaN
NaN	0.2	RANDOM	0	0.7749007844277	1	1	0	0	NONE	NaN
558.90478515625	0.2	RANDOM	0	0.644869827478942	1	0	0	0	NONE	1126
560.17431640625	0.2	COHERENT	1	0.773574791094688	1	0	0	0	RIGHT	1130
561.6943359375	0.2	COHERENT	1	0.699413641100364	1	0	0	180	LEFT	1133
563.07421875	0.2	RANDOM	0	0.643352466112447	1	0	0	0	NONE	1137
564.59423828125	0.2	COHERENT	1	0.614038143210564	1	0	0	180	LEFT	1140
566.1142578125	0.2	RANDOM	0	0.51980628966885	1	0	0	0	NONE	1143
567.494140625	0.2	RANDOM	0	0.575140930181078	1	0	0	0	NONE	1147
568.833984375	0.2	RANDOM	0	0.56904703548571	1	0	0	0	NONE	1151
570.263671875	0.2	COHERENT	1	0.603331795949998	1	0	0	0	RIGHT	1155
571.4833984375	0.2	COHERENT	1	0.648107690097277	1	0	0	180	LEFT	1159
573.013671875	0.2	RANDOM	0	0.509898617200633	1	0	0	0	NONE	1162
574.30322265625	0.2	COHERENT	1	0.514888070829329	1	0	0	0	RIGHT	1166
575.50341796875	0.2	COHERENT	1	0.593609756509977	1	0	0	180	LEFT	1170
576.93310546875	0.2	RANDOM	0	0.469552259169177	1	0	0	0	NONE	1174
578.033203125	0.2	RANDOM	0	0.71309585184099	1	0	0	0	NONE	1178
579.57275390625	0.2	RANDOM	0	0.664147591238361	1	0	0	0	NONE	1181
580.99267578125	0.2	COHERENT	1	0.609880265186803	1	0	0	180	LEFT	1185
582.27294921875	0.2	RANDOM	0	0.673825863541424	1	0	0	0	NONE	1189
583.6025390625	0.2	RANDOM	0	0.758595563883318	1	0	0	0	NONE	1193
585.21240234375	0.2	COHERENT	1	0.649347356525141	1	0	0	0	RIGHT	1196
586.66259765625	0.2	RANDOM	0	0.528895969439873	1	0	0	0	NONE	1200
587.84228515625	0.2	RANDOM	0	0.719052710121105	1	0	0	0	NONE	1204
589.46240234375	0.2	RANDOM	0	0.529850696712856	1	0	0	0	NONE	1207
590.662109375	0.2	COHERENT	1	0.652613290480076	1	0	0	180	LEFT	1211
592.11181640625	0.2	RANDOM	0	0.509597680402294	1	0	0	0	NONE	1215
593.35205078125	0.2	RANDOM	0	0.694333031088718	1	0	0	0	NONE	1219
594.70166015625	0.2	COHERENT	1	0.658127647911897	1	0	0	180	LEFT	1223
595.9716796875	0.2	COHERENT	1	0.677920052834452	1	0	0	0	RIGHT	1227
597.271484375	0.2	COHERENT	1	0.623825078750997	1	0	0	0	RIGHT	1231
598.58154296875	0.2	RANDOM	0	0.637479218155931	1	0	0	0	NONE	1235
599.9912109375	0.2	COHERENT	1	0.56997489879268	1	0	0	0	RIGHT	1239
601.25146484375	0.2	COHERENT	1	0.597419308491226	1	0	0	180	LEFT	1243
NaN	0.2	RANDOM	0	0.704085858445069	1	1	0	0	NONE	NaN
NaN	0.2	COHERENT	1	0.625065650705437	1	1	0	180	LEFT	NaN
NaN	0.2	RANDOM	0	0.89778803907484	1	1	0	0	NONE	NaN
NaN	0.2	RANDOM	0	0.67956116955429	1	1	0	0	NONE	NaN
608.73095703125	0.2	RANDOM	0	0.83433323634199	1	0	0	0	NONE	1246
610.1904296875	0.2	COHERENT	1	0.763243332001366	1	0	0	180	LEFT	1250
611.6103515625	0.2	RANDOM	0	0.707871564883135	1	0	0	0	NONE	1254
613.1103515625	0.2	COHERENT	1	0.729812483474234	1	0	0	180	LEFT	1258
614.60009765625	0.2	RANDOM	0	0.619674444942575	1	0	0	0	NONE	1262
615.8701171875	0.2	COHERENT	1	0.598527673508215	1	0	0	0	RIGHT	1266
617.14990234375	0.2	COHERENT	1	0.473292689258415	1	0	0	180	LEFT	1270
618.25	0.2	RANDOM	0	0.683307636490099	1	0	0	0	NONE	1274
619.75	0.2	RANDOM	0	0.485041599908982	1	0	0	0	NONE	1278
621.02001953125	0.2	COHERENT	1	0.553818788356693	1	0	0	180	LEFT	1282
622.31982421875	0.2	RANDOM	0	0.489585836109654	1	0	0	0	NONE	1286
623.689453125	0.2	COHERENT	1	0.444500553579019	1	0	0	180	LEFT	1290
624.75927734375	0.2	COHERENT	1	0.603190533741326	1	0	0	180	LEFT	1294
625.9892578125	0.2	RANDOM	0	0.563076896143684	1	0	0	0	NONE	1298
627.439453125	0.2	COHERENT	1	0.430024497522936	1	0	0	0	RIGHT	1302
628.75927734375	0.2	COHERENT	1	0.794735749118445	1	0	0	180	LEFT	1306
630.3388671875	0.2	RANDOM	0	0.549593297651882	1	0	0	0	NONE	1309
631.798828125	0.2	RANDOM	0	0.599365587801913	1	0	0	0	NONE	1313
633.22900390625	0.2	RANDOM	0	0.595273209562038	1	0	0	0	NONE	1317
634.55859375	0.2	COHERENT	1	0.430119879697486	1	0	0	180	LEFT	1321
635.62841796875	0.2	RANDOM	0	0.632903288511443	1	0	0	0	NONE	1325
637.07861328125	0.2	COHERENT	1	0.414781158277037	1	0	0	180	LEFT	1329
638.0986328125	0.2	RANDOM	0	0.598338720213178	1	0	0	0	NONE	1333
639.49853515625	0.2	COHERENT	1	0.469497927550947	1	0	0	180	LEFT	1337
640.59814453125	0.2	RANDOM	0	0.623277234931265	1	0	0	0	NONE	1341
642.1181640625	0.2	RANDOM	0	0.649070265270893	1	0	0	0	NONE	1344
643.51806640625	0.2	RANDOM	0	0.819866537397502	1	0	0	0	NONE	1348
645.05810546875	0.2	RANDOM	0	0.744772090934021	1	0	0	0	NONE	1351
646.68798828125	0.2	RANDOM	0	0.614599268093116	1	0	0	0	NONE	1354
648.02783203125	0.2	COHERENT	1	0.74437999775455	1	0	0	180	LEFT	1358
649.677734375	0.2	COHERENT	1	0.619089172674649	1	0	0	180	LEFT	1361
650.8974609375	0.2	RANDOM	0	0.757863294403251	1	0	0	0	NONE	1365
652.3974609375	0.2	RANDOM	0	0.91976880085349	1	0	0	0	NONE	1369
654.14697265625	0.2	COHERENT	1	0.774294685039422	1	0	0	0	RIGHT	1372
655.796875	0.2	COHERENT	1	0.664372765611915	1	0	0	180	LEFT	1375
657.216796875	0.2	RANDOM	0	0.639126975407635	1	0	0	0	NONE	1379
658.56689453125	0.2	RANDOM	0	0.734906676389983	1	0	0	0	NONE	1383
659.94677734375	0.2	RANDOM	0	1.16865621004308	1	0	0	0	NONE	1387
661.83642578125	0.2	RANDOM	0	0.698547353627873	1	0	0	0	NONE	1389
663.306640625	0.2	RANDOM	0	0.69433182371904	1	0	0	0	NONE	1393
664.70654296875	0.2	COHERENT	1	0.698094288297398	1	0	0	0	RIGHT	1397
666.13623046875	0.2	RANDOM	0	0.580077561403414	1	0	0	0	NONE	1401
667.576171875	0.2	COHERENT	1	0.610574804376483	1	0	0	0	RIGHT	1405
668.93603515625	0.2	RANDOM	0	0.6785877280563	1	0	0	0	NONE	1409
670.3359375	0.2	RANDOM	0	0.584383644009904	1	0	0	0	NONE	1413
671.7958984375	0.2	COHERENT	1	0.684308545639396	1	0	0	0	RIGHT	1417
673.19580078125	0.2	COHERENT	1	0.898041284785904	1	0	0	0	RIGHT	1421
674.91552734375	0.2	RANDOM	0	0.734840572920803	1	0	0	0	NONE	1424
676.265625	0.2	COHERENT	1	0.763653233878358	1	0	0	180	LEFT	1428
677.775390625	0.2	RANDOM	0	0.769602847942224	1	0	0	0	NONE	1431
679.1953125	0.2	COHERENT	1	0.758298852878397	1	0	0	180	LEFT	1435
680.6650390625	0.2	COHERENT	1	0.708088287672581	1	0	0	180	LEFT	1439
682.03515625	0.2	RANDOM	0	0.617982618711721	1	0	0	0	NONE	1443
683.55517578125	0.2	COHERENT	1	0.690532232534679	1	0	0	180	LEFT	1446
684.98486328125	0.2	COHERENT	1	0.789557945878187	1	0	0	0	RIGHT	1450
686.6044921875	0.2	COHERENT	1	0.714322237206943	1	0	0	180	LEFT	1453
687.9248046875	0.2	RANDOM	0	1.01820561982095	1	0	0	0	NONE	1457
689.75439453125	0.2	COHERENT	1	0.794643687208918	1	0	0	0	RIGHT	1459
691.37451171875	0.2	RANDOM	0	0.764804762347921	1	0	0	0	NONE	1462
692.97412109375	0.2	COHERENT	1	0.734555030081538	1	0	0	0	RIGHT	1465
694.4638671875	0.2	RANDOM	0	0.739298482216327	1	0	0	0	NONE	1469
695.8740234375	0.2	RANDOM	0	0.763247859636067	1	0	0	0	NONE	1473
697.27392578125	0.2	RANDOM	0	0.807919920023778	1	0	0	0	NONE	1477
698.81396484375	0.2	RANDOM	0	0.754866603802839	1	0	0	0	NONE	1480
700.29345703125	0.2	COHERENT	1	0.814678471519073	1	0	0	0	RIGHT	1484
701.83349609375	0.2	RANDOM	0	0.674123480072922	1	0	0	0	NONE	1487
703.41357421875	0.2	COHERENT	1	0.709020678614252	1	0	0	0	RIGHT	1490
704.953125	0.2	COHERENT	1	0.743942930068442	1	0	0	0	RIGHT	1493
NaN	0.2	COHERENT	1	0.648827282199818	1	1	0	0	RIGHT	NaN
NaN	0.2	COHERENT	1	0.878581510105505	1	1	0	0	RIGHT	NaN
709.623046875	0.2	COHERENT	1	0.669493520652395	1	0	0	0	RIGHT	1496
711.0927734375	0.2	RANDOM	0	0.740260151862458	1	0	0	0	NONE	1500
712.5029296875	0.2	COHERENT	1	0.733063928996671	1	0	0	0	RIGHT	1504
713.8427734375	0.2	COHERENT	1	0.817684519231989	1	0	0	180	LEFT	1508
715.54248046875	0.2	RANDOM	0	0.844581688796097	1	0	0	0	NONE	1511
717.1123046875	0.2	RANDOM	0	0.804450242500025	1	0	0	0	NONE	1514
718.68212890625	0.2	COHERENT	1	0.674242707790654	1	0	0	180	LEFT	1517
720.06201171875	0.2	COHERENT	1	0.808308089253842	1	0	0	180	LEFT	1521
721.69189453125	0.2	RANDOM	0	0.844835236348445	1	0	0	0	NONE	1524
723.31201171875	0.2	COHERENT	1	0.654630502735927	1	0	0	0	RIGHT	1527
724.56201171875	0.2	RANDOM	0	0.79841701811165	1	0	0	0	NONE	1531
726.00146484375	0.2	COHERENT	1	0.843280748375946	1	0	0	0	RIGHT	1535
727.4814453125	0.2	RANDOM	0	0.778066204888091	1	0	0	0	NONE	1539
NaN	0.2	COHERENT	1	0.668934810509199	1	1	0	0	RIGHT	NaN
730.521484375	0.2	COHERENT	1	0.704763494464714	1	0	0	180	LEFT	1542
731.97119140625	0.2	RANDOM	0	0.769410272539062	1	0	0	0	NONE	1546
733.37109375	0.2	RANDOM	0	0.843307914185061	1	0	0	0	NONE	1550
735.0107421875	0.2	COHERENT	1	0.610150414066993	1	0	0	0	RIGHT	1553
736.3408203125	0.2	COHERENT	1	0.954877590863362	1	0	0	0	RIGHT	1557
738.03076171875	0.2	RANDOM	0	NaN	0	0	1	0	NONE	1560
739.48046875	0.2	RANDOM	0	NaN	0	0	1	0	NONE	1564
741.46044921875	0.2	COHERENT	1	1.12388876748173	1	0	0	180	LEFT	1565
743.30029296875	0.2	COHERENT	1	1.06467062361753	1	0	0	0	RIGHT	1567
745.06005859375	0.2	COHERENT	1	1.03827541783994	1	0	0	180	LEFT	1569
746.85009765625	0.2	COHERENT	1	0.820445169134473	1	0	0	0	RIGHT	1571
748.44970703125	0.2	COHERENT	1	0.844101457656507	1	0	0	0	RIGHT	1574
750.14990234375	0.2	COHERENT	1	0.789113332134548	1	0	0	180	LEFT	1577
751.7197265625	0.2	COHERENT	1	0.764911916372512	1	0	0	0	RIGHT	1580
NaN	0.2	RANDOM	0	0.727802817275915	1	1	0	0	NONE	NaN
754.8095703125	0.2	COHERENT	1	0.629569440034174	1	0	0	0	RIGHT	1583
756.08935546875	0.2	RANDOM	0	0.898344032638306	1	0	0	0	NONE	1587
757.88916015625	0.2	RANDOM	0	0.739139713153236	1	0	0	0	NONE	1590
759.279296875	0.2	COHERENT	1	0.767986784135246	1	0	0	0	RIGHT	1594
760.93896484375	0.2	RANDOM	0	0.749815876181856	1	0	0	0	NONE	1597
762.298828125	0.2	COHERENT	1	0.748584963181202	1	0	0	180	LEFT	1601
867.62060546875	0.2	COHERENT	1	0.521492682738426	1	0	0	0	RIGHT	1603
868.83056640625	0.2	COHERENT	1	0.472070227842778	1	0	0	180	LEFT	1607
NaN	0.2	COHERENT	1	0.590784210507081	1	1	0	180	LEFT	NaN
NaN	0.2	RANDOM	0	0.567341928192945	1	1	0	0	NONE	NaN
872.560546875	0.2	RANDOM	0	0.619395240791164	1	0	0	0	NONE	1611
NaN	0.2	COHERENT	1	0.639303251325146	1	1	0	0	RIGHT	NaN
875.4501953125	0.2	COHERENT	1	0.55506177504958	1	0	0	180	LEFT	1615
876.60009765625	0.2	COHERENT	1	0.878365994684827	1	0	0	0	RIGHT	1619
NaN	0.2	COHERENT	1	0.683688561503914	1	1	0	180	LEFT	NaN
879.83984375	0.2	COHERENT	1	0.539591752219167	1	0	0	180	LEFT	1622
881.19970703125	0.2	COHERENT	1	0.584325992125741	1	0	0	180	LEFT	1626
882.61962890625	0.2	RANDOM	0	0.754091170870197	1	0	0	0	NONE	1630
884.21923828125	0.2	RANDOM	0	0.619983833325023	1	0	0	0	NONE	1633
885.70947265625	0.2	RANDOM	0	0.634823911223975	1	0	0	0	NONE	1637
887.0693359375	0.2	RANDOM	0	0.84458349984925	1	0	0	0	NONE	1641
888.62890625	0.2	COHERENT	1	0.71839288279989	1	0	0	0	RIGHT	1644
890.0888671875	0.2	COHERENT	1	0.539171889545287	1	0	0	0	RIGHT	1648
891.52880859375	0.2	RANDOM	0	0.650089284958995	1	0	0	0	NONE	1652
893.048828125	0.2	COHERENT	1	0.554832676725709	1	0	0	0	RIGHT	1655
894.32861328125	0.2	COHERENT	1	0.574617535589823	1	0	0	0	RIGHT	1659
895.61865234375	0.2	RANDOM	0	0.848390938934244	1	0	0	0	NONE	1663
897.318359375	0.2	COHERENT	1	0.579285828986031	1	0	0	180	LEFT	1666
898.67822265625	0.2	RANDOM	0	0.57908902779036	1	0	0	0	NONE	1670
900.1181640625	0.2	COHERENT	1	0.560873145329424	1	0	0	0	RIGHT	1674
901.39794921875	0.2	RANDOM	0	0.514805667874498	1	0	0	0	NONE	1678
902.76806640625	0.2	RANDOM	0	0.669599467308217	1	0	0	0	NONE	1682
904.26806640625	0.2	COHERENT	1	0.554975448145342	1	0	0	180	LEFT	1686
905.7177734375	0.2	RANDOM	0	0.757887441789535	1	0	0	0	NONE	1690
907.267578125	0.2	COHERENT	1	0.889903615709045	1	0	0	0	RIGHT	1693
908.8876953125	0.2	COHERENT	1	0.664824623572713	1	0	0	180	LEFT	1696
910.20751953125	0.2	RANDOM	0	0.818587631467381	1	0	0	0	NONE	1700
911.62744140625	0.2	RANDOM	0	0.778736294849296	1	0	0	0	NONE	1704
913.22705078125	0.2	COHERENT	1	0.683022395493026	1	0	0	180	LEFT	1707
914.70703125	0.2	RANDOM	0	0.700058678147798	1	0	0	0	NONE	1711
916.19677734375	0.2	RANDOM	0	0.764918255062184	1	0	0	0	NONE	1715
917.56689453125	0.2	COHERENT	1	0.927598892601054	1	0	0	0	RIGHT	1719
919.07666015625	0.2	RANDOM	0	0.718596626368708	1	0	0	0	NONE	1722
920.646484375	0.2	RANDOM	0	0.64926797199405	1	0	0	0	NONE	1725
922.13671875	0.2	RANDOM	0	0.724085629045476	1	0	0	0	NONE	1729
923.53662109375	0.2	COHERENT	1	0.612859750774987	1	0	0	180	LEFT	1733
925.00634765625	0.2	COHERENT	1	0.609787599592892	1	0	0	180	LEFT	1737
926.2861328125	0.2	COHERENT	1	0.803397416470943	1	0	0	180	LEFT	1741
927.755859375	0.2	RANDOM	0	0.68319474746022	1	0	0	0	NONE	1745
929.27587890625	0.2	COHERENT	1	0.733851435622455	1	0	0	0	RIGHT	1748
930.77587890625	0.2	COHERENT	1	0.74481465070221	1	0	0	0	RIGHT	1752
932.20556640625	0.2	COHERENT	1	0.643836319359252	1	0	0	0	RIGHT	1756
933.44580078125	0.2	COHERENT	1	0.758574434920774	1	0	0	0	RIGHT	1760
935.11572265625	0.2	RANDOM	0	0.559352765539188	1	0	0	0	NONE	1763
936.4453125	0.2	COHERENT	1	0.624048442071398	1	0	0	180	LEFT	1767
937.84521484375	0.2	RANDOM	0	0.574110138642936	1	0	0	0	NONE	1771
939.115234375	0.2	COHERENT	1	0.667867194206337	1	0	0	0	RIGHT	1775
940.43505859375	0.2	RANDOM	0	0.728797689577732	1	0	0	0	NONE	1779
941.98486328125	0.2	RANDOM	0	0.664607900782357	1	0	0	0	NONE	1782
943.2548828125	0.2	RANDOM	0	0.708667523093936	1	0	0	0	NONE	1786
944.6845703125	0.2	RANDOM	0	0.704139284537632	1	0	0	0	NONE	1790
946.1845703125	0.2	RANDOM	0	0.660948968122284	1	0	0	0	NONE	1794
947.70458984375	0.2	RANDOM	0	0.631450219560975	1	0	0	0	NONE	1797
949.1845703125	0.2	RANDOM	0	0.598677689143187	1	0	0	0	NONE	1801
950.484375	0.2	COHERENT	1	0.808439088822524	1	0	0	180	LEFT	1805
952.0439453125	0.2	COHERENT	1	0.698996495007123	1	0	0	180	LEFT	1808
953.39404296875	0.2	COHERENT	1	0.808082009351892	1	0	0	0	RIGHT	1812
954.97412109375	0.2	RANDOM	0	0.684907400811426	1	0	0	0	NONE	1815
956.39404296875	0.2	COHERENT	1	0.704606234613493	1	0	0	0	RIGHT	1819
957.91357421875	0.2	COHERENT	1	0.644395029502448	1	0	0	180	LEFT	1822
959.29345703125	0.2	RANDOM	0	1.14403523345118	1	0	0	0	NONE	1826
961.0634765625	0.2	RANDOM	0	0.893827565931133	1	0	0	0	NONE	1828
962.75341796875	0.2	COHERENT	1	0.789871861896245	1	0	0	0	RIGHT	1831
964.4033203125	0.2	COHERENT	1	0.789589639322003	1	0	0	180	LEFT	1834
NaN	0.2	RANDOM	0	0.844449481857737	1	1	0	0	NONE	NaN
967.57275390625	0.2	COHERENT	1	0.724157165675933	1	0	0	180	LEFT	1837
968.90283203125	0.2	COHERENT	1	0.808095894099097	1	0	0	180	LEFT	1841
970.4228515625	0.2	RANDOM	0	0.907838482964507	1	0	0	0	NONE	1844
971.94287109375	0.2	RANDOM	0	0.883596922174547	1	0	0	0	NONE	1847
973.552734375	0.2	RANDOM	0	0.884396200650372	1	0	0	0	NONE	1850
975.142578125	0.2	COHERENT	1	0.868293818148231	1	0	0	180	LEFT	1853
976.8623046875	0.2	RANDOM	0	0.919944473085707	1	0	0	0	NONE	1856
978.63232421875	0.2	RANDOM	0	0.750811955853351	1	0	0	0	NONE	1859
980.0322265625	0.2	RANDOM	0	0.948565464166677	1	0	0	0	NONE	1863
981.61181640625	0.2	RANDOM	0	0.903124007693805	1	0	0	0	NONE	1866
983.1318359375	0.2	COHERENT	1	NaN	0	0	1	180	LEFT	1869
984.931640625	0.2	COHERENT	1	0.639690816869916	1	0	0	0	RIGHT	1871
986.3515625	0.2	RANDOM	0	0.644829682450109	1	0	0	0	NONE	1875
987.72119140625	0.2	COHERENT	1	0.684626687449963	1	0	0	0	RIGHT	1879
989.30126953125	0.2	COHERENT	1	0.63941100903412	1	0	0	0	RIGHT	1882
990.72119140625	0.2	COHERENT	1	0.674667399942336	1	0	0	0	RIGHT	1886
992.2509765625	0.2	RANDOM	0	0.628069585522098	1	0	0	0	NONE	1889
993.6708984375	0.2	RANDOM	0	0.679922172975239	1	0	0	0	NONE	1893
995.140625	0.2	COHERENT	1	0.744638374784699	1	0	0	180	LEFT	1897
996.720703125	0.2	RANDOM	0	0.569415283121998	1	0	0	0	NONE	1900
997.92041015625	0.2	RANDOM	0	0.843326628409159	1	0	0	0	NONE	1904
999.5302734375	0.2	COHERENT	1	0.779078584045237	1	0	0	0	RIGHT	1907
1001.09033203125	0.2	COHERENT	1	0.750005433162187	1	0	0	0	RIGHT	1910
1002.50048828125	0.2	COHERENT	1	0.717653972787957	1	0	0	180	LEFT	1914
1004.1103515625	0.2	COHERENT	1	0.63954321597339	1	0	0	0	RIGHT	1917
1005.60986328125	0.2	COHERENT	1	0.649352789687327	1	0	0	180	LEFT	1921
1007.1201171875	0.2	RANDOM	0	0.749130995946871	1	0	0	0	NONE	1924
1008.72998046875	0.2	RANDOM	0	0.684939999782728	1	0	0	0	NONE	1927
1010.26953125	0.2	RANDOM	0	0.629920784500428	1	0	0	0	NONE	1930
1011.66943359375	0.2	RANDOM	0	0.65450916212194	1	0	0	0	NONE	1934
1012.939453125	0.2	RANDOM	0	0.898355200803053	1	0	0	0	NONE	1938
1014.41943359375	0.2	COHERENT	1	0.738666726230804	1	0	0	180	LEFT	1942
1016.0693359375	0.2	COHERENT	1	0.618670215527345	1	0	0	180	LEFT	1945
1017.50927734375	0.2	RANDOM	0	0.664845148849963	1	0	0	0	NONE	1949
1018.92919921875	0.2	COHERENT	1	0.719528111782893	1	0	0	0	RIGHT	1953
1020.47900390625	0.2	RANDOM	0	0.764426252071644	1	0	0	0	NONE	1956
1022.048828125	0.2	COHERENT	1	0.639084415639445	1	0	0	180	LEFT	1959
1023.4287109375	0.2	RANDOM	0	0.688943636379008	1	0	0	0	NONE	1963
1024.80859375	0.2	COHERENT	1	0.688917074254277	1	0	0	0	RIGHT	1967
1026.11865234375	0.2	RANDOM	0	0.708659675193303	1	0	0	0	NONE	1971
1027.5185546875	0.2	COHERENT	1	0.738443061067301	1	0	0	180	LEFT	1975
1029.09814453125	0.2	RANDOM	0	0.689315807965613	1	0	0	0	NONE	1978
1030.64794921875	0.2	RANDOM	0	0.729150845098047	1	0	0	0	NONE	1981
1032.0478515625	0.2	RANDOM	0	0.743882561602732	1	0	0	0	NONE	1985
1033.66796875	0.2	COHERENT	1	0.744809519383125	1	0	0	0	RIGHT	1988
1035.23779296875	0.2	RANDOM	0	0.674281947293821	1	0	0	0	NONE	1991
1036.61767578125	0.2	COHERENT	1	0.748337452474516	1	0	0	180	LEFT	1995
1037.9873046875	0.2	COHERENT	1	0.713033370479934	1	0	0	180	LEFT	1999
1039.357421875	0.2	RANDOM	0	0.817943801788715	1	0	0	0	NONE	2003
1041.02734375	0.2	RANDOM	0	0.709820862616652	1	0	0	0	NONE	2006
1042.50732421875	0.2	COHERENT	1	0.634594511057003	1	0	0	180	LEFT	2010
1043.796875	0.2	RANDOM	0	0.778042661187101	1	0	0	0	NONE	2014
1045.22705078125	0.2	COHERENT	1	0.778301943743827	1	0	0	0	RIGHT	2018
1046.9169921875	0.2	COHERENT	1	0.698917714159506	1	0	0	0	RIGHT	2021
1048.376953125	0.2	RANDOM	0	0.784827171121833	1	0	0	0	NONE	2025
1049.9365234375	0.2	RANDOM	0	0.694626723670808	1	0	0	0	NONE	2028
1051.236328125	0.2	RANDOM	0	0.738385409184048	1	0	0	0	NONE	2032
1052.646484375	0.2	RANDOM	0	0.793272417527078	1	0	0	0	NONE	2036
1054.15625	0.2	COHERENT	1	0.758035646371354	1	0	0	0	RIGHT	2039
1055.80615234375	0.2	RANDOM	0	0.659905197362605	1	0	0	0	NONE	2042
1057.0859375	0.2	RANDOM	0	0.933627589354728	1	0	0	0	NONE	2046
1058.80615234375	0.2	COHERENT	1	0.684311262220035	1	0	0	0	RIGHT	2049
1060.15576171875	0.2	RANDOM	0	0.633378992015423	1	0	0	0	NONE	2053
1061.67578125	0.2	COHERENT	1	0.664149704133706	1	0	0	0	RIGHT	2056
1063.04541015625	0.2	RANDOM	0	0.758937249394876	1	0	0	0	NONE	2060
1064.67529296875	0.2	RANDOM	0	0.964696521689802	1	0	0	0	NONE	2063
1066.2255859375	0.2	RANDOM	0	0.838403881933118	1	0	0	0	NONE	2066
1067.92529296875	0.2	COHERENT	1	0.768983769335136	1	0	0	180	LEFT	2069
1069.544921875	0.2	RANDOM	0	0.649373314965487	1	0	0	0	NONE	2072
1070.94482421875	0.2	COHERENT	1	0.710097652028708	1	0	0	0	RIGHT	2076
1072.3349609375	0.2	RANDOM	0	0.812679067959834	1	0	0	0	NONE	2080
1073.86474609375	0.2	RANDOM	0	0.695199016718107	1	0	0	0	NONE	2083
1075.23486328125	0.2	COHERENT	1	0.812355794829273	1	0	0	180	LEFT	2087
1076.88427734375	0.2	COHERENT	1	0.59417540902632	1	0	0	0	RIGHT	2090
1078.20458984375	0.2	COHERENT	1	0.755045596301898	1	0	0	180	LEFT	2094
1079.82421875	0.2	COHERENT	1	0.704808770813543	1	0	0	0	RIGHT	2097
1081.154296875	0.2	COHERENT	1	0.813610553374019	1	0	0	180	LEFT	2101
1082.77392578125	0.2	RANDOM	0	0.779408799548037	1	0	0	0	NONE	2104
1084.4541015625	0.2	COHERENT	1	0.758981318374936	1	0	0	0	RIGHT	2107
1086.0439453125	0.2	COHERENT	1	0.67483673348579	1	0	0	180	LEFT	2110
1087.44384765625	0.2	COHERENT	1	0.634841719921496	1	0	0	180	LEFT	2114
