onset	duration	trial_type	trial_type_id	response_time	bad_epoch	outliers	event_num	response_accuracy
52.876953125	0.2	FACES	1	0.450424513608141	0	0	1.0	1
54.2568359375	0.2	SCRAMBLED	0	0.4742481665985	0	0	9.0	1
n/a	0.2	SCRAMBLED	0	0.489242274601111	1	0	n/a	1
n/a	0.2	FACES	1	0.413879035354057	1	0	n/a	1
57.99658203125	0.2	SCRAMBLED	0	n/a	0	1	17.0	0
59.16650390625	0.2	FACES	1	0.44432001757923	0	0	25.0	1
60.576171875	0.2	SCRAMBLED	0	0.533379434995823	0	0	33.0	1
62.06640625	0.2	FACES	1	0.308239922631401	0	0	41.0	1
63.0458984375	0.2	SCRAMBLED	0	0.393032773029972	0	0	51.0	1
64.14599609375	0.2	FACES	1	0.367894286935552	0	0	59.0	1
65.3359375	0.2	SCRAMBLED	0	0.494776888880551	0	0	67.0	1
66.61572265625	0.2	SCRAMBLED	0	0.500275281861832	0	0	75.0	1
68.015625	0.2	FACES	1	0.349453118774363	0	0	83.0	1
69.3056640625	0.2	FACES	1	n/a	0	1	91.0	0
70.4853515625	0.2	SCRAMBLED	0	0.440814097812108	0	0	99.0	1
71.6552734375	0.2	SCRAMBLED	0	0.375960166231835	0	0	107.0	1
72.88525390625	0.2	FACES	1	0.290921614697254	0	0	115.0	1
74.05517578125	0.2	FACES	1	0.316756757083112	0	0	123.0	1
75.14501953125	0.2	FACES	1	0.330487043641824	0	0	131.0	1
76.35498046875	0.2	SCRAMBLED	0	0.402390847119477	0	0	139.0	1
77.44482421875	0.2	SCRAMBLED	0	0.350080049067856	0	0	147.0	1
78.52490234375	0.2	SCRAMBLED	0	n/a	0	1	155.0	0
79.64501953125	0.2	FACES	1	0.444957210573648	0	0	163.0	1
80.875	0.2	FACES	1	0.37656898587602	0	0	171.0	1
82.044921875	0.2	SCRAMBLED	0	n/a	0	1	179.0	0
83.36474609375	0.2	FACES	1	0.401492558938116	0	0	187.0	1
84.66455078125	0.2	FACES	1	0.484267883058237	0	0	195.0	1
85.89453125	0.2	FACES	1	0.378162119283843	0	0	203.0	1
87.1044921875	0.2	SCRAMBLED	0	0.466202510860057	0	0	211.0	1
88.25439453125	0.2	FACES	1	0.44786608261802	0	0	219.0	1
89.48388671875	0.2	SCRAMBLED	0	0.382506260247737	0	0	227.0	1
90.55419921875	0.2	SCRAMBLED	0	0.372501334150911	0	0	235.0	1
91.7841796875	0.2	FACES	1	0.360439642036908	0	0	243.0	1
92.8837890625	0.2	SCRAMBLED	0	0.330213572844968	0	0	251.0	1
94.173828125	0.2	SCRAMBLED	0	0.417106352974315	0	0	259.0	1
95.423828125	0.2	FACES	1	0.380398784413501	0	0	267.0	1
96.65380859375	0.2	SCRAMBLED	0	0.398727968396088	0	0	275.0	1
98.00341796875	0.2	SCRAMBLED	0	0.421518710715191	0	0	283.0	1
99.21337890625	0.2	FACES	1	0.448435964367945	0	0	291.0	1
100.39306640625	0.2	FACES	1	0.335197925244302	0	0	299.0	1
101.56298828125	0.2	FACES	1	0.306185873210779	0	0	307.0	1
102.693359375	0.2	SCRAMBLED	0	0.404981877277351	0	0	315.0	1
103.8828125	0.2	FACES	1	0.426946170322481	0	0	323.0	1
105.0927734375	0.2	FACES	1	0.347676765969481	0	0	331.0	1
106.29296875	0.2	FACES	1	0.283487495200461	0	0	339.0	1
107.41259765625	0.2	SCRAMBLED	0	0.443086682395005	0	0	347.0	1
108.78271484375	0.2	SCRAMBLED	0	0.376137650589953	0	0	355.0	1
109.9326171875	0.2	SCRAMBLED	0	0.301954320113964	0	0	363.0	1
n/a	0.2	SCRAMBLED	0	0.332929264634913	1	0	n/a	1
n/a	0.2	SCRAMBLED	0	0.32569043830199	1	0	n/a	1
113.37255859375	0.2	SCRAMBLED	0	0.389532286457325	0	0	371.0	1
114.42236328125	0.2	SCRAMBLED	0	0.366511840742078	0	0	379.0	1
115.4921875	0.2	FACES	1	0.440455808809929	0	0	387.0	1
116.6220703125	0.2	SCRAMBLED	0	n/a	0	1	395.0	0
117.7421875	0.2	FACES	1	0.545048729718928	0	0	403.0	1
119.06201171875	0.2	FACES	1	0.367873459689235	0	0	411.0	1
120.19189453125	0.2	SCRAMBLED	0	0.365717990635403	0	0	419.0	1
121.24169921875	0.2	FACES	1	0.457569768256235	0	0	427.0	1
122.66162109375	0.2	FACES	1	0.28144944352016	0	0	435.0	1
123.7314453125	0.2	FACES	1	0.396238961559447	0	0	443.0	1
125.01123046875	0.2	SCRAMBLED	0	n/a	0	1	451.0	0
126.111328125	0.2	FACES	1	0.567943306424695	0	0	459.0	1
127.53125	0.2	FACES	1	0.36486950673816	0	0	467.0	1
128.63134765625	0.2	FACES	1	0.456656086023486	0	0	475.0	1
129.8310546875	0.2	SCRAMBLED	0	0.442468505581928	0	0	483.0	1
130.93115234375	0.2	FACES	1	0.580333103127032	0	0	491.0	1
132.1708984375	0.2	SCRAMBLED	0	0.35817249064894	0	0	499.0	1
133.27099609375	0.2	FACES	1	0.356952436606662	0	0	507.0	1
134.55078125	0.2	FACES	1	0.386886622508882	0	0	515.0	1
135.720703125	0.2	FACES	1	0.438723827094236	0	0	523.0	1
136.9404296875	0.2	SCRAMBLED	0	0.483548286611949	0	0	531.0	1
138.12060546875	0.2	SCRAMBLED	0	0.420445654772266	0	0	539.0	1
139.29052734375	0.2	FACES	1	0.412115963692031	0	0	547.0	1
140.4404296875	0.2	SCRAMBLED	0	0.521118223900885	0	0	555.0	1
141.77001953125	0.2	FACES	1	0.511683179553529	0	0	563.0	1
143.0302734375	0.2	FACES	1	0.39583479224666	0	0	571.0	1
144.27978515625	0.2	FACES	1	0.351605871230731	0	0	579.0	1
145.31005859375	0.2	SCRAMBLED	0	0.442518309866045	0	0	587.0	1
146.52978515625	0.2	SCRAMBLED	0	0.496331386237216	0	0	595.0	1
147.85986328125	0.2	FACES	1	0.354013983835557	0	0	603.0	1
149.0498046875	0.2	SCRAMBLED	0	0.423975118383169	0	0	611.0	1
150.3994140625	0.2	SCRAMBLED	0	n/a	0	1	619.0	0
151.5693359375	0.2	SCRAMBLED	0	0.378631185088125	0	0	627.0	1
152.74951171875	0.2	FACES	1	0.484462874377186	0	0	635.0	1
153.9892578125	0.2	FACES	1	0.462405009646773	0	0	643.0	1
155.13916015625	0.2	FACES	1	0.48723470917912	0	0	651.0	1
156.4990234375	0.2	SCRAMBLED	0	0.484119979426396	0	0	659.0	1
157.71875	0.2	SCRAMBLED	0	0.35290561212787	0	0	667.0	1
158.8388671875	0.2	SCRAMBLED	0	0.397670910193028	0	0	675.0	1
160.11865234375	0.2	SCRAMBLED	0	0.334688412323885	0	0	683.0	1
161.1884765625	0.2	SCRAMBLED	0	0.354682568621229	0	0	691.0	1
162.5087890625	0.2	FACES	1	0.38175346094522	0	0	699.0	1
163.75830078125	0.2	SCRAMBLED	0	0.386113599648525	0	0	707.0	1
165.07861328125	0.2	SCRAMBLED	0	0.294082526604143	0	0	715.0	1
166.078125	0.2	SCRAMBLED	0	0.5348017246165	0	0	724.0	1
167.2783203125	0.2	SCRAMBLED	0	0.587670934340622	0	0	732.0	1
168.578125	0.2	SCRAMBLED	0	0.387534078204226	0	0	740.0	1
169.828125	0.2	SCRAMBLED	0	0.318231869429383	0	0	748.0	1
170.81787109375	0.2	SCRAMBLED	0	0.438242989367609	0	0	758.0	1
171.927734375	0.2	FACES	1	0.34704138404004	0	0	766.0	1
173.2177734375	0.2	FACES	1	0.678858352993302	0	0	774.0	1
174.69775390625	0.2	FACES	1	n/a	0	1	782.0	0
175.8173828125	0.2	FACES	1	0.462592454862261	0	0	790.0	1
177.0673828125	0.2	FACES	1	0.398061194674938	0	0	798.0	1
178.3173828125	0.2	FACES	1	0.333413120803016	0	0	806.0	1
179.4072265625	0.2	SCRAMBLED	0	0.460149932024706	0	0	814.0	1
180.51708984375	0.2	FACES	1	0.451956976342444	0	0	822.0	1
181.67724609375	0.2	FACES	1	0.382980457402482	0	0	830.0	1
182.97705078125	0.2	FACES	1	0.334648870740693	0	0	838.0	1
184.22705078125	0.2	FACES	1	0.424266397984866	0	0	846.0	1
185.57666015625	0.2	SCRAMBLED	0	0.5133436242063	0	0	854.0	1
186.82666015625	0.2	SCRAMBLED	0	0.582143262476166	0	0	862.0	1
188.32666015625	0.2	SCRAMBLED	0	0.549962752432293	0	0	869.0	1
189.61669921875	0.2	FACES	1	0.436824321877339	0	0	877.0	1
190.896484375	0.2	FACES	1	0.423631619743901	0	0	885.0	1
192.21630859375	0.2	FACES	1	0.356467674906526	0	0	893.0	1
193.34619140625	0.2	FACES	1	0.388272087143832	0	0	901.0	1
194.416015625	0.2	FACES	1	0.368229333938871	0	0	909.0	1
195.51611328125	0.2	FACES	1	0.355087039778482	0	0	917.0	1
196.5859375	0.2	SCRAMBLED	0	0.455933772979279	0	0	925.0	1
197.8359375	0.2	SCRAMBLED	0	0.39490209383257	0	0	933.0	1
199.0556640625	0.2	FACES	1	0.418625232721752	0	0	941.0	1
200.28564453125	0.2	SCRAMBLED	0	0.449409109897715	0	0	949.0	1
201.3857421875	0.2	FACES	1	0.503279536657374	0	0	957.0	1
202.65576171875	0.2	SCRAMBLED	0	0.397163510181599	0	0	965.0	1
203.83544921875	0.2	SCRAMBLED	0	0.413996452727588	0	0	973.0	1
205.1552734375	0.2	FACES	1	0.373882271123421	0	0	981.0	1
206.1953125	0.2	FACES	1	0.392733041792326	0	0	989.0	1
207.30517578125	0.2	FACES	1	0.307522137250089	0	0	997.0	1
208.35498046875	0.2	SCRAMBLED	0	0.474863626814567	0	0	1005.0	1
209.64501953125	0.2	FACES	1	0.371245662499405	0	0	1013.0	1
210.77490234375	0.2	SCRAMBLED	0	n/a	0	1	1021.0	0
211.9248046875	0.2	SCRAMBLED	0	0.417932500404277	0	0	1029.0	1
213.0947265625	0.2	FACES	1	0.422768345483746	0	0	1037.0	1
214.31494140625	0.2	SCRAMBLED	0	0.324693748928439	0	0	1045.0	1
215.5947265625	0.2	SCRAMBLED	0	0.299440863901964	0	0	1053.0	1
216.5947265625	0.2	SCRAMBLED	0	0.376398142088874	0	0	1062.0	1
217.654296875	0.2	FACES	1	0.53994575257002	0	0	1070.0	1
218.91455078125	0.2	SCRAMBLED	0	0.492074176388087	0	0	1078.0	1
220.30419921875	0.2	FACES	1	0.518908121056484	0	0	1086.0	1
221.75390625	0.2	FACES	1	0.365673015857737	0	0	1094.0	1
223.05419921875	0.2	FACES	1	0.444597412350504	0	0	1102.0	1
224.43408203125	0.2	SCRAMBLED	0	0.450412137998228	0	0	1110.0	1
225.82373046875	0.2	SCRAMBLED	0	0.300230488190664	0	0	1118.0	1
227.00390625	0.2	FACES	1	0.353150105886925	0	0	1126.0	1
228.173828125	0.2	SCRAMBLED	0	0.370864131497456	0	0	1134.0	1
229.29345703125	0.2	FACES	1	0.450718509807757	0	0	1142.0	1
230.41357421875	0.2	SCRAMBLED	0	0.442614899993259	0	0	1150.0	1
231.7734375	0.2	SCRAMBLED	0	0.303383552150535	0	0	1158.0	1
232.9130859375	0.2	SCRAMBLED	0	0.336399868637727	0	0	1166.0	1
246.40234375	0.2	FACES	1	0.4692357426934	0	0	1170.0	1
247.55224609375	0.2	FACES	1	0.316198647255533	0	0	1178.0	1
248.6220703125	0.2	FACES	1	0.282230012484433	0	0	1186.0	1
249.6220703125	0.2	SCRAMBLED	0	0.398141787061832	0	0	1195.0	1
250.7119140625	0.2	FACES	1	0.437976159142181	0	0	1203.0	1
251.91162109375	0.2	SCRAMBLED	0	0.367840860521483	0	0	1211.0	1
253.181640625	0.2	FACES	1	0.353659015118865	0	0	1219.0	1
254.41162109375	0.2	SCRAMBLED	0	0.342292470074881	0	0	1227.0	1
255.6416015625	0.2	SCRAMBLED	0	0.29435509186942	0	0	1235.0	1
256.6513671875	0.2	FACES	1	0.38119233267571	0	0	1243.0	1
257.681640625	0.2	FACES	1	n/a	0	1	1251.0	0
258.8515625	0.2	FACES	1	n/a	0	1	1259.0	0
260.01123046875	0.2	FACES	1	0.366816703330642	0	0	1267.0	1
261.28125	0.2	SCRAMBLED	0	0.490386263918026	0	0	1275.0	1
262.62109375	0.2	FACES	1	0.386998908531496	0	0	1283.0	1
263.78076171875	0.2	SCRAMBLED	0	0.484286899239578	0	0	1291.0	1
265.140625	0.2	SCRAMBLED	0	0.389153170208829	0	0	1299.0	1
266.19091796875	0.2	SCRAMBLED	0	0.357933128240347	0	0	1307.0	1
267.4208984375	0.2	FACES	1	0.338823375293941	0	0	1315.0	1
268.49072265625	0.2	SCRAMBLED	0	0.502608838962715	0	0	1323.0	1
269.74072265625	0.2	SCRAMBLED	0	0.472610662101033	0	0	1331.0	1
270.87060546875	0.2	FACES	1	0.411284684910697	0	0	1339.0	1
272.09033203125	0.2	SCRAMBLED	0	0.357164029353953	0	0	1347.0	1
273.23046875	0.2	FACES	1	0.499073640312872	0	0	1355.0	1
274.51025390625	0.2	SCRAMBLED	0	0.440658044387874	0	0	1363.0	1
n/a	0.2	FACES	1	0.342577410949616	1	0	n/a	1
276.830078125	0.2	SCRAMBLED	0	0.318654451235034	0	0	1371.0	1
277.90966796875	0.2	FACES	1	0.288332697448368	0	0	1379.0	1
279.15966796875	0.2	SCRAMBLED	0	0.298390144426321	0	0	1387.0	1
280.24951171875	0.2	FACES	1	0.396177687197905	0	0	1395.0	1
281.49951171875	0.2	FACES	1	0.373969805926663	0	0	1403.0	1
282.76953125	0.2	SCRAMBLED	0	n/a	0	1	1411.0	0
283.8896484375	0.2	FACES	1	0.496692391837314	0	0	1419.0	1
285.1494140625	0.2	FACES	1	0.422512985335288	0	0	1427.0	1
286.24951171875	0.2	FACES	1	0.377469085122357	0	0	1435.0	1
287.51904296875	0.2	SCRAMBLED	0	n/a	0	1	1443.0	0
288.6689453125	0.2	FACES	1	0.420104570886451	0	0	1451.0	1
289.93896484375	0.2	SCRAMBLED	0	0.462120370616049	0	0	1459.0	1
291.23876953125	0.2	SCRAMBLED	0	n/a	0	1	1467.0	0
292.37890625	0.2	FACES	1	0.481542532254934	0	0	1475.0	1
293.6787109375	0.2	FACES	1	0.378485696209282	0	0	1483.0	1
294.78857421875	0.2	SCRAMBLED	0	0.460320172123375	0	0	1491.0	1
296.1484375	0.2	SCRAMBLED	0	0.342156942052952	0	0	1499.0	1
297.3984375	0.2	FACES	1	0.423928030696516	0	0	1507.0	1
298.6484375	0.2	SCRAMBLED	0	0.454892108828062	0	0	1515.0	1
299.79833984375	0.2	FACES	1	0.636664163372188	0	0	1523.0	1
301.16796875	0.2	FACES	1	0.506474255108969	0	0	1531.0	1
302.328125	0.2	SCRAMBLED	0	0.427407991866858	0	0	1539.0	1
303.677734375	0.2	FACES	1	0.368113425786305	0	0	1547.0	1
304.93798828125	0.2	FACES	1	0.378992190688223	0	0	1555.0	1
306.28759765625	0.2	SCRAMBLED	0	0.489928064502692	0	0	1563.0	1
307.44775390625	0.2	FACES	1	0.437695444084966	0	0	1571.0	1
308.8173828125	0.2	SCRAMBLED	0	0.364443302802556	0	0	1579.0	1
309.96728515625	0.2	SCRAMBLED	0	0.404373359477177	0	0	1587.0	1
311.1572265625	0.2	SCRAMBLED	0	0.313106253969181	0	0	1595.0	1
312.4375	0.2	FACES	1	0.282080901475638	0	0	1603.0	1
313.45703125	0.2	FACES	1	0.426895158661409	0	0	1611.0	1
314.75732421875	0.2	FACES	1	0.278650442744947	0	0	1619.0	1
315.9970703125	0.2	FACES	1	0.292499354053234	0	0	1627.0	1
317.20703125	0.2	FACES	1	0.278506161242603	0	0	1635.0	1
318.22705078125	0.2	FACES	1	0.447195083079805	0	0	1643.0	1
319.32666015625	0.2	FACES	1	0.282360107311433	0	0	1651.0	1
320.27685546875	0.2	FACES	1	0.252323898087525	0	0	1661.0	1
321.37646484375	0.2	FACES	1	0.303957056029503	0	0	1669.0	1
322.4267578125	0.2	SCRAMBLED	0	n/a	0	1	1677.0	0
323.486328125	0.2	FACES	1	0.382674387437419	0	0	1685.0	1
324.83642578125	0.2	SCRAMBLED	0	0.42940016323746	0	0	1693.0	1
326.166015625	0.2	SCRAMBLED	0	0.319193243037716	0	0	1701.0	1
327.1962890625	0.2	FACES	1	0.432117967936847	0	0	1709.0	1
328.3359375	0.2	SCRAMBLED	0	0.366914500834355	0	0	1717.0	1
329.56591796875	0.2	SCRAMBLED	0	0.347815614276897	0	0	1725.0	1
330.7060546875	0.2	SCRAMBLED	0	0.37385902912456	0	0	1733.0	1
332.02587890625	0.2	SCRAMBLED	0	0.321840114362658	0	0	1741.0	1
333.27587890625	0.2	FACES	1	0.467191352286136	0	0	1749.0	1
334.42578125	0.2	FACES	1	0.567200467979546	0	0	1757.0	1
335.9453125	0.2	SCRAMBLED	0	n/a	0	1	1763.0	0
336.9052734375	0.2	FACES	1	0.461891874597313	0	0	1773.0	1
338.0751953125	0.2	SCRAMBLED	0	n/a	0	1	1781.0	0
339.29541015625	0.2	SCRAMBLED	0	0.447648151144222	0	0	1789.0	1
340.42529296875	0.2	SCRAMBLED	0	0.34344792947013	0	0	1797.0	1
341.5751953125	0.2	FACES	1	0.653316301274117	0	0	1805.0	1
343.134765625	0.2	FACES	1	0.332968504374549	0	0	1811.0	1
344.31494140625	0.2	FACES	1	0.363870704456076	0	0	1819.0	1
345.5146484375	0.2	SCRAMBLED	0	0.412870875903536	0	0	1827.0	1
346.8447265625	0.2	SCRAMBLED	0	0.357400071476604	0	0	1835.0	1
347.86474609375	0.2	SCRAMBLED	0	0.397845677953683	0	0	1843.0	1
348.95458984375	0.2	FACES	1	0.426413415402749	0	0	1851.0	1
350.33447265625	0.2	FACES	1	0.643046054172373	0	0	1859.0	1
351.63427734375	0.2	SCRAMBLED	0	0.366962192209485	0	0	1867.0	1
352.734375	0.2	SCRAMBLED	0	0.341879245438122	0	0	1875.0	1
353.744140625	0.2	SCRAMBLED	0	0.347665295891602	0	0	1883.0	1
354.8740234375	0.2	FACES	1	0.248588878612736	0	0	1891.0	1
355.80419921875	0.2	SCRAMBLED	0	n/a	0	1	1901.0	0
357.0537109375	0.2	FACES	1	n/a	0	1	1909.0	0
358.45361328125	0.2	FACES	1	0.493039775814395	0	0	1917.0	1
359.8134765625	0.2	FACES	1	0.331918086742462	0	0	1925.0	1
360.99365234375	0.2	FACES	1	0.373784171775696	0	0	1933.0	1
362.263671875	0.2	FACES	1	0.368676968808813	0	0	1941.0	1
363.513671875	0.2	SCRAMBLED	0	0.524450885127408	0	0	1949.0	1
364.8935546875	0.2	SCRAMBLED	0	0.358356313734475	0	0	1957.0	1
365.9130859375	0.2	FACES	1	0.540946667761546	0	0	1965.0	1
367.38330078125	0.2	SCRAMBLED	0	0.475095443119244	0	0	1973.0	1
368.61328125	0.2	SCRAMBLED	0	0.407842756103037	0	0	1981.0	1
369.78271484375	0.2	FACES	1	0.482683201286818	0	0	1989.0	1
370.98291015625	0.2	FACES	1	0.422608669930014	0	0	1997.0	1
372.2529296875	0.2	FACES	1	0.533386981099738	0	0	2005.0	1
373.57275390625	0.2	SCRAMBLED	0	0.404120112237706	0	0	2013.0	1
374.8828125	0.2	SCRAMBLED	0	0.35882055003276	0	0	2021.0	1
376.142578125	0.2	SCRAMBLED	0	0.394917487883959	0	0	2029.0	1
377.4423828125	0.2	FACES	1	0.483685625698399	0	0	2037.0	1
378.59228515625	0.2	SCRAMBLED	0	0.547464086583204	0	0	2045.0	1
380.06201171875	0.2	FACES	1	0.478402145749897	0	0	2053.0	1
381.22216796875	0.2	SCRAMBLED	0	0.553084424600456	0	0	2061.0	1
382.61181640625	0.2	FACES	1	0.409046510560984	0	0	2069.0	1
383.73193359375	0.2	FACES	1	0.401740674826669	0	0	2077.0	1
385.06201171875	0.2	FACES	1	0.308718647448586	0	0	2085.0	1
386.23193359375	0.2	SCRAMBLED	0	0.459567372821311	0	0	2093.0	1
387.3515625	0.2	SCRAMBLED	0	0.458897580659141	0	0	2101.0	1
388.5615234375	0.2	FACES	1	0.479303452372733	0	0	2109.0	1
389.931640625	0.2	SCRAMBLED	0	0.534086052144175	0	0	2117.0	1
391.13134765625	0.2	FACES	1	0.603325175492046	0	0	2125.0	1
392.50146484375	0.2	SCRAMBLED	0	0.504447371662081	0	0	2133.0	1
393.97119140625	0.2	SCRAMBLED	0	0.428629555130101	0	0	2141.0	1
395.201171875	0.2	FACES	1	0.432434300602836	0	0	2149.0	1
396.451171875	0.2	FACES	1	n/a	0	1	2157.0	0
397.77099609375	0.2	SCRAMBLED	0	0.364105539202228	0	0	2165.0	1
398.970703125	0.2	SCRAMBLED	0	0.414932169583153	0	0	2173.0	1
400.220703125	0.2	SCRAMBLED	0	0.364833285440909	0	0	2181.0	1
401.560546875	0.2	SCRAMBLED	0	0.599633923418423	0	0	2189.0	1
403.0302734375	0.2	FACES	1	0.397588204896692	0	0	2197.0	1
404.14013671875	0.2	SCRAMBLED	0	0.508392172819185	0	0	2205.0	1
405.39013671875	0.2	SCRAMBLED	0	0.460124577116403	0	0	2213.0	1
406.51025390625	0.2	SCRAMBLED	0	0.387902328063319	0	0	2221.0	1
407.830078125	0.2	FACES	1	0.308897037339193	0	0	2229.0	1
408.8798828125	0.2	SCRAMBLED	0	0.492637115722573	0	0	2237.0	1
410.25	0.2	FACES	1	0.40846696979861	0	0	2245.0	1
411.4697265625	0.2	FACES	1	0.473363763248017	0	0	2253.0	1
412.599609375	0.2	SCRAMBLED	0	0.458222657146052	0	0	2261.0	1
413.81982421875	0.2	FACES	1	0.401979131703229	0	0	2269.0	1
415.08935546875	0.2	SCRAMBLED	0	0.438917007348209	0	0	2277.0	1
416.44921875	0.2	SCRAMBLED	0	0.374695439255447	0	0	2285.0	1
417.69921875	0.2	FACES	1	0.428321975944527	0	0	2293.0	1
418.939453125	0.2	FACES	1	0.493220580458456	0	0	2301.0	1
420.109375	0.2	SCRAMBLED	0	0.518123326274235	0	0	2309.0	1
421.50927734375	0.2	SCRAMBLED	0	0.525066345343475	0	0	2317.0	1
422.8388671875	0.2	SCRAMBLED	0	0.459754818036345	0	0	2325.0	1
423.98876953125	0.2	SCRAMBLED	0	0.402820975029044	0	0	2333.0	1
425.18896484375	0.2	SCRAMBLED	0	0.399509744736406	0	0	2341.0	1
426.32861328125	0.2	FACES	1	0.477393382609989	0	0	2349.0	1
427.6083984375	0.2	SCRAMBLED	0	0.448125366740896	0	0	2357.0	1
440.4677734375	0.2	FACES	1	0.302215717145373	0	0	2361.0	1
441.65771484375	0.2	FACES	1	0.308458155949211	0	0	2369.0	1
442.70751953125	0.2	FACES	1	0.377346234554807	0	0	2377.0	1
443.9072265625	0.2	SCRAMBLED	0	0.393171319493831	0	0	2385.0	1
445.18701171875	0.2	SCRAMBLED	0	n/a	0	1	2393.0	0
446.42724609375	0.2	FACES	1	0.393881558771227	0	0	2401.0	1
447.47705078125	0.2	FACES	1	0.432562282521303	0	0	2409.0	1
448.64697265625	0.2	SCRAMBLED	0	0.542462529067961	0	0	2417.0	1
450.0068359375	0.2	FACES	1	0.418427826649804	0	0	2425.0	1
451.1669921875	0.2	FACES	1	0.337187380016985	0	0	2433.0	1
452.37646484375	0.2	FACES	1	0.319127139169723	0	0	2441.0	1
453.44677734375	0.2	SCRAMBLED	0	0.44292308286731	0	0	2449.0	1
454.8466796875	0.2	SCRAMBLED	0	0.367977294075899	0	0	2457.0	1
456.03662109375	0.2	SCRAMBLED	0	0.428602087312811	0	0	2465.0	1
457.26611328125	0.2	SCRAMBLED	0	0.329486128450299	0	0	2473.0	1
458.30615234375	0.2	FACES	1	0.432375440994292	0	0	2481.0	1
459.56640625	0.2	FACES	1	0.379124700268676	0	0	2489.0	1
460.80615234375	0.2	FACES	1	0.333834495232168	0	0	2497.0	1
462.0361328125	0.2	SCRAMBLED	0	0.428904233303456	0	0	2505.0	1
463.40576171875	0.2	SCRAMBLED	0	0.294642145653143	0	0	2513.0	1
464.53564453125	0.2	SCRAMBLED	0	0.333618072978879	0	0	2521.0	1
465.77587890625	0.2	FACES	1	0.463431279746601	0	0	2529.0	1
467.0556640625	0.2	SCRAMBLED	0	0.498182596390961	0	0	2537.0	1
468.4453125	0.2	SCRAMBLED	0	0.424917475810162	0	0	2545.0	1
469.74560546875	0.2	SCRAMBLED	0	0.312849686444224	0	0	2553.0	1
470.97509765625	0.2	FACES	1	0.473758877236378	0	0	2561.0	1
472.22509765625	0.2	FACES	1	0.378502901325646	0	0	2569.0	1
473.46533203125	0.2	SCRAMBLED	0	n/a	0	1	2577.0	0
474.73486328125	0.2	SCRAMBLED	0	0.387125984917475	0	0	2585.0	1
476.044921875	0.2	SCRAMBLED	0	0.403077542554001	0	0	2593.0	1
477.4150390625	0.2	FACES	1	0.442883239439652	0	0	2601.0	1
478.56494140625	0.2	FACES	1	0.642716138519972	0	0	2609.0	1
479.91455078125	0.2	FACES	1	0.401466902185803	0	0	2617.0	1
481.11474609375	0.2	FACES	1	0.333433344360401	0	0	2625.0	1
482.33447265625	0.2	FACES	1	0.318218588286982	0	0	2633.0	1
483.37451171875	0.2	SCRAMBLED	0	0.468058852364265	0	0	2641.0	1
484.734375	0.2	FACES	1	0.413623977050065	0	0	2649.0	1
485.80419921875	0.2	FACES	1	0.412471234252735	0	0	2657.0	1
487.05419921875	0.2	SCRAMBLED	0	0.444483013418449	0	0	2665.0	1
488.40380859375	0.2	SCRAMBLED	0	0.40947784584705	0	0	2673.0	1
489.77392578125	0.2	FACES	1	0.393509083093704	0	0	2681.0	1
491.013671875	0.2	SCRAMBLED	0	0.463049446901096	0	0	2689.0	1
492.263671875	0.2	FACES	1	0.478928863786223	0	0	2697.0	1
493.59375	0.2	SCRAMBLED	0	n/a	0	1	2705.0	0
494.61328125	0.2	FACES	1	0.548597813199649	0	0	2713.0	1
496.13330078125	0.2	SCRAMBLED	0	0.46840295469201	0	0	2719.0	1
497.25341796875	0.2	SCRAMBLED	0	0.39840891913218	0	0	2727.0	1
498.61328125	0.2	SCRAMBLED	0	0.349145841432801	0	0	2735.0	1
499.76318359375	0.2	SCRAMBLED	0	0.378910692768386	0	0	2743.0	1
501.06298828125	0.2	SCRAMBLED	0	0.349837668217788	0	0	2751.0	1
502.32275390625	0.2	SCRAMBLED	0	0.309459674829213	0	0	2759.0	1
503.32275390625	0.2	SCRAMBLED	0	0.382585947102143	0	0	2768.0	1
504.6728515625	0.2	SCRAMBLED	0	0.299416112682138	0	0	2776.0	1
505.72265625	0.2	FACES	1	0.371072102115249	0	0	2784.0	1
506.82275390625	0.2	SCRAMBLED	0	0.483110914442932	0	0	2792.0	1
508.0224609375	0.2	FACES	1	0.501784804441286	0	0	2800.0	1
509.46240234375	0.2	FACES	1	0.318821672892682	0	0	2808.0	1
510.46240234375	0.2	FACES	1	0.437676427903625	0	0	2817.0	1
511.6123046875	0.2	SCRAMBLED	0	0.468423480093861	0	0	2825.0	1
512.81201171875	0.2	FACES	1	0.437113186725583	0	0	2833.0	1
514.0419921875	0.2	FACES	1	0.353158255678863	0	0	2841.0	1
515.23193359375	0.2	FACES	1	0.32897027680292	0	0	2849.0	1
516.4619140625	0.2	SCRAMBLED	0	0.539835881300405	0	0	2857.0	1
517.95166015625	0.2	FACES	1	0.428612651857748	0	0	2865.0	1
519.33154296875	0.2	FACES	1	n/a	0	1	2873.0	0
520.4013671875	0.2	FACES	1	0.538352619161742	0	0	2881.0	1
521.70166015625	0.2	SCRAMBLED	0	0.428799493384759	0	0	2889.0	1
523.08154296875	0.2	SCRAMBLED	0	0.318042914993384	0	0	2897.0	1
524.12109375	0.2	SCRAMBLED	0	0.677909354995336	0	0	2905.0	1
525.59130859375	0.2	FACES	1	0.558635338463773	0	0	2913.0	1
526.951171875	0.2	FACES	1	0.41259287744424	0	0	2921.0	1
528.14111328125	0.2	SCRAMBLED	0	0.454409761881379	0	0	2929.0	1
529.31103515625	0.2	SCRAMBLED	0	0.388173987796108	0	0	2937.0	1
530.57080078125	0.2	FACES	1	0.409021155652681	0	0	2945.0	1
531.810546875	0.2	SCRAMBLED	0	0.519843536068038	0	0	2953.0	1
533.060546875	0.2	SCRAMBLED	0	0.602726618548331	0	0	2961.0	1
534.63037109375	0.2	SCRAMBLED	0	0.318442254800175	0	0	2967.0	1
535.79052734375	0.2	SCRAMBLED	0	0.39934614520871	0	0	2975.0	1
537.16015625	0.2	SCRAMBLED	0	0.359133562413263	0	0	2983.0	1
538.25	0.2	FACES	1	0.417074961182607	0	0	2991.0	1
539.60009765625	0.2	FACES	1	0.468861154107344	0	0	2999.0	1
540.97998046875	0.2	SCRAMBLED	0	0.458652785055619	0	0	3007.0	1
542.330078125	0.2	SCRAMBLED	0	0.363596328126278	0	0	3015.0	1
543.349609375	0.2	SCRAMBLED	0	0.367433370923209	0	0	3023.0	1
544.4296875	0.2	SCRAMBLED	0	0.378272896085946	0	0	3031.0	1
545.7197265625	0.2	SCRAMBLED	0	0.289133791814493	0	0	3039.0	1
546.86962890625	0.2	FACES	1	0.383976543087556	0	0	3047.0	1
548.04931640625	0.2	FACES	1	0.323883599237888	0	0	3055.0	1
549.189453125	0.2	SCRAMBLED	0	0.469463936868578	0	0	3063.0	1
550.3193359375	0.2	SCRAMBLED	0	0.368624447927232	0	0	3071.0	1
551.5693359375	0.2	FACES	1	0.598365876157004	0	0	3079.0	1
553.05908203125	0.2	SCRAMBLED	0	0.533501681875805	0	0	3087.0	1
554.27880859375	0.2	FACES	1	0.416767683841499	0	0	3095.0	1
555.47900390625	0.2	SCRAMBLED	0	0.414833164703396	0	0	3103.0	1
556.72900390625	0.2	SCRAMBLED	0	0.554688424397682	0	0	3111.0	1
557.95849609375	0.2	FACES	1	0.37757865454796	0	0	3119.0	1
559.298828125	0.2	SCRAMBLED	0	0.499388463757896	0	0	3127.0	1
560.5185546875	0.2	FACES	1	0.551184315695082	0	0	3135.0	1
561.86865234375	0.2	FACES	1	0.254062822218657	0	0	3143.0	1
563.0283203125	0.2	SCRAMBLED	0	0.419885432035699	0	0	3151.0	1
564.09814453125	0.2	FACES	1	0.39148340702377	0	0	3159.0	1
565.39794921875	0.2	FACES	1	n/a	0	1	3167.0	0
566.3681640625	0.2	SCRAMBLED	0	0.412399999033823	0	0	3177.0	1
567.44775390625	0.2	FACES	1	0.38233058695414	0	0	3185.0	1
568.65771484375	0.2	FACES	1	0.568113244679807	0	0	3193.0	1
569.93798828125	0.2	FACES	1	0.372044342112531	0	0	3201.0	1
570.9677734375	0.2	SCRAMBLED	0	0.40787112945236	0	0	3209.0	1
572.1376953125	0.2	SCRAMBLED	0	0.477633046863048	0	0	3217.0	1
573.4375	0.2	FACES	1	0.578446275363603	0	0	3225.0	1
574.7373046875	0.2	SCRAMBLED	0	0.387351160651178	0	0	3233.0	1
576.05712890625	0.2	FACES	1	0.457969711751048	0	0	3241.0	1
577.22705078125	0.2	SCRAMBLED	0	0.428829375955047	0	0	3249.0	1
578.59716796875	0.2	SCRAMBLED	0	n/a	0	1	3257.0	0
579.546875	0.2	FACES	1	0.481309508573759	0	0	3267.0	1
580.876953125	0.2	FACES	1	0.263592645627796	0	0	3275.0	1
582.07666015625	0.2	FACES	1	0.308416199613021	0	0	3283.0	1
583.216796875	0.2	FACES	1	0.318227643611408	0	0	3291.0	1
584.19677734375	0.2	FACES	1	0.541120831834178	0	0	3301.0	1
585.646484375	0.2	SCRAMBLED	0	0.378965326558955	0	0	3309.0	1
586.6865234375	0.2	FACES	1	0.372911540347104	0	0	3317.0	1
587.83642578125	0.2	FACES	1	0.458719190768079	0	0	3325.0	1
589.20654296875	0.2	SCRAMBLED	0	0.348553925060514	0	0	3333.0	1
590.416015625	0.2	SCRAMBLED	0	0.379388512053083	0	0	3341.0	1
591.7060546875	0.2	FACES	1	0.363120319906557	0	0	3349.0	1
592.755859375	0.2	FACES	1	0.357107886342419	0	0	3357.0	1
594.0361328125	0.2	SCRAMBLED	0	0.31369605743248	0	0	3365.0	1
595.23583984375	0.2	FACES	1	0.308594891348548	0	0	3373.0	1
596.3759765625	0.2	SCRAMBLED	0	0.324902926922277	0	0	3381.0	1
597.6455078125	0.2	FACES	1	0.287409658046727	0	0	3389.0	1
598.70556640625	0.2	SCRAMBLED	0	0.403351617039334	0	0	3397.0	1
599.99560546875	0.2	SCRAMBLED	0	n/a	0	1	3405.0	0
601.12548828125	0.2	FACES	1	0.368910596178466	0	0	3413.0	1
602.275390625	0.2	FACES	1	0.378916427807326	0	0	3421.0	1
603.615234375	0.2	FACES	1	0.373626307286941	0	0	3429.0	1
604.6650390625	0.2	SCRAMBLED	0	0.43357527147873	0	0	3437.0	1
605.8349609375	0.2	FACES	1	0.427419461944737	0	0	3445.0	1
606.9150390625	0.2	FACES	1	0.462166552770668	0	0	3453.0	1
608.11474609375	0.2	SCRAMBLED	0	0.532927272463439	0	0	3461.0	1
609.3349609375	0.2	SCRAMBLED	0	0.632932766027352	0	0	3469.0	1
610.634765625	0.2	SCRAMBLED	0	0.397420077706556	0	0	3477.0	1
611.70458984375	0.2	SCRAMBLED	0	0.298459568580256	0	0	3485.0	1
612.70458984375	0.2	FACES	1	0.562545427544137	0	0	3494.0	1
614.17431640625	0.2	FACES	1	0.293392510884132	0	0	3502.0	1
615.2841796875	0.2	FACES	1	0.378150347362407	0	0	3510.0	1
616.55419921875	0.2	FACES	1	0.309023811880706	0	0	3518.0	1
617.55419921875	0.2	SCRAMBLED	0	0.522870429173963	0	0	3527.0	1
618.84423828125	0.2	SCRAMBLED	0	0.427722815312336	0	0	3535.0	1
619.923828125	0.2	FACES	1	0.520604183318483	0	0	3543.0	1
621.4140625	0.2	SCRAMBLED	0	0.498411394254163	0	0	3551.0	1
622.56396484375	0.2	FACES	1	0.431884944255671	0	0	3559.0	1
633.90283203125	0.2	FACES	1	0.331421251276879	0	0	3563.0	1
635.1328125	0.2	SCRAMBLED	0	0.388614378406601	0	0	3571.0	1
636.392578125	0.2	FACES	1	0.453394660014965	0	0	3579.0	1
637.552734375	0.2	FACES	1	0.442347767922911	0	0	3587.0	1
638.72265625	0.2	SCRAMBLED	0	0.853058043421697	0	0	3595.0	1
640.49267578125	0.2	FACES	1	0.512057466296028	0	0	3600.0	1
641.9423828125	0.2	SCRAMBLED	0	0.413716643203315	0	0	3608.0	1
643.29248046875	0.2	SCRAMBLED	0	0.51362283004255	0	0	3616.0	1
644.58203125	0.2	FACES	1	0.468352848563427	0	0	3624.0	1
645.76220703125	0.2	FACES	1	0.371299390757486	0	0	3632.0	1
647.0419921875	0.2	SCRAMBLED	0	0.248128264444404	0	0	3640.0	1
648.20166015625	0.2	SCRAMBLED	0	0.398928392909511	0	0	3648.0	1
649.31201171875	0.2	FACES	1	0.542829873394567	0	0	3656.0	1
650.76171875	0.2	SCRAMBLED	0	0.458652483211154	0	0	3664.0	1
652.03173828125	0.2	FACES	1	0.453058707479158	0	0	3672.0	1
653.33154296875	0.2	FACES	1	0.412293749894161	0	0	3680.0	1
654.72119140625	0.2	SCRAMBLED	0	0.449119037672517	0	0	3688.0	1
656.021484375	0.2	FACES	1	0.673934369423478	0	0	3696.0	1
657.6513671875	0.2	SCRAMBLED	0	0.479770103424016	0	0	3702.0	1
658.791015625	0.2	FACES	1	0.49256376759422	0	0	3710.0	1
659.94091796875	0.2	FACES	1	0.392390448685092	0	0	3718.0	1
661.291015625	0.2	SCRAMBLED	0	n/a	0	1	3726.0	0
662.390625	0.2	SCRAMBLED	0	0.392831442984061	0	0	3734.0	1
663.49072265625	0.2	FACES	1	0.493260122041647	0	0	3742.0	1
664.9306640625	0.2	FACES	1	0.417668688619869	0	0	3750.0	1
666.03076171875	0.2	FACES	1	0.447681655844917	0	0	3758.0	1
667.23046875	0.2	SCRAMBLED	0	0.528641991108543	0	0	3766.0	1
668.46044921875	0.2	FACES	1	0.402374849380067	0	0	3774.0	1
669.55029296875	0.2	FACES	1	0.467085103146019	0	0	3782.0	1
670.88037109375	0.2	SCRAMBLED	0	0.989928064502692	0	0	3790.0	1
672.5498046875	0.2	SCRAMBLED	0	0.511817802043424	0	0	3796.0	1
673.7998046875	0.2	FACES	1	0.446395497934191	0	0	3804.0	1
674.98974609375	0.2	FACES	1	0.977356255780705	0	0	3812.0	1
676.61962890625	0.2	FACES	1	0.413345978590769	0	0	3818.0	1
677.689453125	0.2	FACES	1	0.40309293660539	0	0	3826.0	1
678.759765625	0.2	FACES	1	0.39206174040919	0	0	3834.0	1
679.90966796875	0.2	SCRAMBLED	0	0.516722769432363	0	0	3842.0	1
681.21923828125	0.2	FACES	1	0.423682631404972	0	0	3850.0	1
682.45947265625	0.2	SCRAMBLED	0	0.479370763617226	0	0	3858.0	1
683.68896484375	0.2	FACES	1	0.47235681117354	0	0	3866.0	1
684.87890625	0.2	SCRAMBLED	0	0.45821752579559	0	0	3874.0	1
686.18896484375	0.2	FACES	1	0.545126303664802	0	0	3882.0	1
687.64892578125	0.2	SCRAMBLED	0	0.460611149881515	0	0	3890.0	1
688.94873046875	0.2	SCRAMBLED	0	0.442652932355486	0	0	3898.0	1
690.15869140625	0.2	FACES	1	0.658320273543268	0	0	3906.0	1
691.728515625	0.2	SCRAMBLED	0	0.499278592488736	0	0	3912.0	1
692.99853515625	0.2	FACES	1	0.511108166454051	0	0	3920.0	1
694.16845703125	0.2	SCRAMBLED	0	0.508138020047227	0	0	3928.0	1
695.6181640625	0.2	SCRAMBLED	0	n/a	0	1	3936.0	0
696.84814453125	0.2	SCRAMBLED	0	0.40858710376915	0	0	3944.0	1
698.14794921875	0.2	FACES	1	0.48863194573596	0	0	3952.0	1
699.51806640625	0.2	SCRAMBLED	0	0.364325281741458	0	0	3960.0	1
700.66796875	0.2	FACES	1	0.519123335933273	0	0	3968.0	1
701.837890625	0.2	FACES	1	0.391751746470163	0	0	3976.0	1
703.177734375	0.2	SCRAMBLED	0	0.553827866734537	0	0	3984.0	1
704.40771484375	0.2	SCRAMBLED	0	0.502599783638288	0	0	3992.0	1
705.7275390625	0.2	SCRAMBLED	0	0.4196110557059	0	0	4000.0	1
706.87744140625	0.2	SCRAMBLED	0	0.522754219177386	0	0	4008.0	1
708.29736328125	0.2	FACES	1	0.567060714139188	0	0	4016.0	1
709.70703125	0.2	FACES	1	0.524065128307939	0	0	4024.0	1
711.02734375	0.2	SCRAMBLED	0	0.613880967157002	0	0	4032.0	1
712.56689453125	0.2	SCRAMBLED	0	0.484660280449589	0	0	4038.0	1
713.94677734375	0.2	SCRAMBLED	0	0.283530055225583	0	0	4046.0	1
714.98681640625	0.2	FACES	1	0.472325721226753	0	0	4054.0	1
716.146484375	0.2	SCRAMBLED	0	0.492007468831616	0	0	4062.0	1
717.5966796875	0.2	SCRAMBLED	0	0.419054455098831	0	0	4070.0	1
718.6865234375	0.2	SCRAMBLED	0	0.557849034461015	0	0	4078.0	1
720.06640625	0.2	FACES	1	0.418679262824298	0	0	4086.0	1
721.31640625	0.2	SCRAMBLED	0	0.443594686094002	0	0	4094.0	1
722.4560546875	0.2	SCRAMBLED	0	0.513206586963861	0	0	4102.0	1
723.8359375	0.2	FACES	1	0.458336452389631	0	0	4110.0	1
725.2060546875	0.2	SCRAMBLED	0	0.58011275689978	0	0	4118.0	1
726.57568359375	0.2	SCRAMBLED	0	0.47513196626096	0	0	4126.0	1
727.845703125	0.2	SCRAMBLED	0	0.643685360076233	0	0	4134.0	1
729.16552734375	0.2	FACES	1	n/a	0	1	4142.0	0
730.42578125	0.2	FACES	1	0.719323881184664	0	0	4150.0	1
731.99560546875	0.2	FACES	1	0.367266451109572	0	0	4156.0	1
733.16552734375	0.2	SCRAMBLED	0	0.560070305538829	0	0	4164.0	1
734.4853515625	0.2	SCRAMBLED	0	0.508110854074403	0	0	4172.0	1
735.88525390625	0.2	FACES	1	n/a	0	1	4180.0	0
737.28515625	0.2	SCRAMBLED	0	0.388441421710013	0	0	4188.0	1
738.35498046875	0.2	SCRAMBLED	0	0.362596016623229	0	0	4196.0	1
739.61474609375	0.2	FACES	1	0.482141994731137	0	0	4204.0	1
740.93505859375	0.2	SCRAMBLED	0	0.464066661676497	0	0	4212.0	1
742.15478515625	0.2	FACES	1	0.512864295701092	0	0	4220.0	1
743.3544921875	0.2	SCRAMBLED	0	0.48161799329182	0	0	4228.0	1
744.5244140625	0.2	FACES	1	0.467556583703754	0	0	4236.0	1
745.95458984375	0.2	SCRAMBLED	0	0.497395085011249	0	0	4244.0	1
747.29443359375	0.2	FACES	1	0.548192738354373	0	0	4252.0	1
748.6943359375	0.2	FACES	1	n/a	0	1	4260.0	0
749.77392578125	0.2	SCRAMBLED	0	0.377885026357035	0	0	4268.0	1
751.1142578125	0.2	FACES	1	0.533657131611108	0	0	4276.0	1
752.57373046875	0.2	FACES	1	0.418478838310421	0	0	4284.0	1
753.64404296875	0.2	FACES	1	0.472366470186444	0	0	4292.0	1
754.94384765625	0.2	FACES	1	n/a	0	1	4300.0	0
756.1435546875	0.2	FACES	1	0.449143185204321	0	0	4308.0	1
757.443359375	0.2	SCRAMBLED	0	0.448932799833983	0	0	4316.0	1
758.7333984375	0.2	FACES	1	0.578588745801426	0	0	4324.0	1
760.0634765625	0.2	SCRAMBLED	0	0.447632757092833	0	0	4332.0	1
761.353515625	0.2	SCRAMBLED	0	0.3634523484684	0	0	4340.0	1
n/a	0.2	SCRAMBLED	0	0.383369232663881	1	0	n/a	1
n/a	0.2	SCRAMBLED	0	0.438147908461815	1	0	n/a	1
765.10302734375	0.2	FACES	1	0.533864800384436	0	0	4348.0	1
766.29296875	0.2	SCRAMBLED	0	0.568810202815257	0	0	4356.0	1
767.623046875	0.2	SCRAMBLED	0	0.577605337570276	0	0	4364.0	1
768.86279296875	0.2	SCRAMBLED	0	0.437440989468996	0	0	4372.0	1
770.2626953125	0.2	SCRAMBLED	0	0.378325718811993	0	0	4380.0	1
771.3623046875	0.2	SCRAMBLED	0	0.438138853136934	0	0	4388.0	1
772.59228515625	0.2	SCRAMBLED	0	0.459919323096074	0	0	4396.0	1
773.732421875	0.2	SCRAMBLED	0	0.356832906324598	0	0	4404.0	1
774.8623046875	0.2	FACES	1	0.438667382238236	0	0	4412.0	1
776.162109375	0.2	FACES	1	0.353576007978518	0	0	4420.0	1
777.34228515625	0.2	FACES	1	0.408308199777366	0	0	4428.0	1
778.61181640625	0.2	SCRAMBLED	0	n/a	0	1	4436.0	0
779.86181640625	0.2	FACES	1	0.38096534587703	0	0	4444.0	1
781.20166015625	0.2	SCRAMBLED	0	0.439883210462995	0	0	4452.0	1
782.50146484375	0.2	FACES	1	0.363749966797059	0	0	4460.0	1
783.82177734375	0.2	SCRAMBLED	0	0.378288893825356	0	0	4468.0	1
785.021484375	0.2	SCRAMBLED	0	0.429310515525685	0	0	4476.0	1
786.1513671875	0.2	FACES	1	0.412208931688838	0	0	4484.0	1
787.22119140625	0.2	FACES	1	0.552144783770927	0	0	4492.0	1
788.50146484375	0.2	FACES	1	0.486838689658725	0	0	4500.0	1
789.72119140625	0.2	FACES	1	0.317820154013134	0	0	4508.0	1
790.8212890625	0.2	SCRAMBLED	0	0.453340328068407	0	0	4516.0	1
791.9609375	0.2	FACES	1	0.47753826780081	0	0	4524.0	1
793.380859375	0.2	FACES	1	0.687230604098659	0	0	4532.0	1
794.9306640625	0.2	SCRAMBLED	0	0.580104908951398	0	0	4538.0	1
796.380859375	0.2	SCRAMBLED	0	0.3749000895873	0	0	4546.0	1
797.560546875	0.2	SCRAMBLED	0	0.339864737600692	0	0	4554.0	1
798.76025390625	0.2	FACES	1	0.481596562357481	0	0	4562.0	1
800.13037109375	0.2	FACES	1	0.338333482243343	0	0	4570.0	1
801.30029296875	0.2	SCRAMBLED	0	0.513290499636241	0	0	4578.0	1
802.68017578125	0.2	SCRAMBLED	0	0.259123239343353	0	0	4586.0	1
803.77001953125	0.2	SCRAMBLED	0	0.295058690575843	0	0	4594.0	1
804.77978515625	0.2	SCRAMBLED	0	0.417590209141508	0	0	4602.0	1
805.98974609375	0.2	FACES	1	0.547671453512066	0	0	4610.0	1
807.43994140625	0.2	FACES	1	0.353529523979887	0	0	4618.0	1
808.51953125	0.2	FACES	1	0.287373738593487	0	0	4626.0	1
809.76953125	0.2	FACES	1	0.303615670299223	0	0	4634.0	1
810.859375	0.2	FACES	1	0.516929230828737	0	0	4642.0	1
812.20947265625	0.2	SCRAMBLED	0	n/a	0	1	4650.0	0
813.4892578125	0.2	FACES	1	n/a	0	1	4658.0	0
814.609375	0.2	FACES	1	0.513575742355442	0	0	4666.0	1
815.859375	0.2	SCRAMBLED	0	0.463382380994972	0	0	4674.0	1
817.22900390625	0.2	FACES	1	0.433130051361786	0	0	4682.0	1
818.34912109375	0.2	FACES	1	0.397090162054155	0	0	4690.0	1
819.40869140625	0.2	FACES	1	0.372864452659996	0	0	4698.0	1
820.65869140625	0.2	FACES	1	0.398781696653714	0	0	4706.0	1
821.81884765625	0.2	SCRAMBLED	0	n/a	0	1	4714.0	0
822.8984375	0.2	SCRAMBLED	0	0.56255206811511	0	0	4722.0	1
