onset	duration	trial_type	trial_type_id	response_time	bad_epoch	outliers	event_num	response_accuracy
n/a	0.2	SCRAMBLED	0	n/a	1	1	n/a	0
n/a	0.2	SCRAMBLED	0	0.498470258480666	1	0	n/a	1
30.2822265625	0.2	SCRAMBLED	0	0.760333452259147	0	0	5.0	1
31.7919921875	0.2	FACES	1	0.568891190946488	0	0	11.0	1
33.26171875	0.2	FACES	1	0.378930979922188	0	0	19.0	1
34.33203125	0.2	FACES	1	0.431744490907477	0	0	27.0	1
35.66162109375	0.2	FACES	1	0.461678888298593	0	0	35.0	1
36.87158203125	0.2	SCRAMBLED	0	0.466419638162733	0	0	43.0	1
38.0517578125	0.2	SCRAMBLED	0	0.390391665746392	0	0	51.0	1
39.30126953125	0.2	FACES	1	0.586045847572677	0	0	59.0	1
40.771484375	0.2	FACES	1	0.403900961611726	0	0	67.0	1
42.021484375	0.2	SCRAMBLED	0	0.410841846822223	0	0	75.0	1
43.37109375	0.2	FACES	1	0.271720186490711	0	0	83.0	1
44.60107421875	0.2	FACES	1	0.348476506635961	0	0	91.0	1
45.82080078125	0.2	SCRAMBLED	0	0.394366639319742	0	0	99.0	1
47.12109375	0.2	SCRAMBLED	0	0.34420301010141	0	0	107.0	1
48.390625	0.2	SCRAMBLED	0	0.463913735617098	0	0	115.0	1
49.560546875	0.2	SCRAMBLED	0	0.373363179593071	0	0	123.0	1
50.66064453125	0.2	FACES	1	0.345551343836632	0	0	131.0	1
51.890625	0.2	FACES	1	0.28245343011622	0	0	139.0	1
53.01025390625	0.2	SCRAMBLED	0	0.396509122608222	0	0	147.0	1
54.310546875	0.2	FACES	1	0.318315424974571	0	0	155.0	1
55.38037109375	0.2	SCRAMBLED	0	0.379111784020097	0	0	163.0	1
56.7001953125	0.2	FACES	1	0.265944416171806	0	0	171.0	1
57.72021484375	0.2	FACES	1	0.467906216099436	0	0	179.0	1
58.89990234375	0.2	SCRAMBLED	0	0.422760730678419	0	0	187.0	1
60.22998046875	0.2	FACES	1	0.249478867653124	0	0	195.0	1
61.36962890625	0.2	FACES	1	0.317373975921328	0	0	203.0	1
62.39990234375	0.2	FACES	1	0.370208012247531	0	0	211.0	1
63.7197265625	0.2	FACES	1	0.320959873563879	0	0	219.0	1
65.00927734375	0.2	SCRAMBLED	0	0.377865775142709	0	0	227.0	1
n/a	0.2	SCRAMBLED	0	n/a	1	1	n/a	0
n/a	0.2	SCRAMBLED	0	0.351630466607276	1	0	n/a	1
68.2392578125	0.2	SCRAMBLED	0	0.335281429577662	0	0	235.0	1
69.30908203125	0.2	SCRAMBLED	0	0.432365080600903	0	0	243.0	1
70.5791015625	0.2	FACES	1	0.316164490074698	0	0	251.0	1
71.55908203125	0.2	SCRAMBLED	0	0.434952782663458	0	0	261.0	1
n/a	0.2	SCRAMBLED	0	n/a	1	1	n/a	0
n/a	0.2	SCRAMBLED	0	0.304803412518595	1	0	n/a	1
n/a	0.2	FACES	1	n/a	1	1	n/a	0
n/a	0.2	SCRAMBLED	0	0.485392296598548	1	0	n/a	1
77.24853515625	0.2	SCRAMBLED	0	0.418297072905261	0	0	269.0	1
78.3984375	0.2	SCRAMBLED	0	0.511173331063219	0	0	277.0	1
79.728515625	0.2	SCRAMBLED	0	0.405921802076591	0	0	285.0	1
81.01806640625	0.2	SCRAMBLED	0	0.60284281996428	0	0	293.0	1
82.58837890625	0.2	SCRAMBLED	0	0.375352024673703	0	0	299.0	1
83.64794921875	0.2	FACES	1	0.397501583167468	0	0	307.0	1
84.7578125	0.2	SCRAMBLED	0	0.4473458622424	0	0	315.0	1
85.98779296875	0.2	SCRAMBLED	0	0.444034038257996	0	0	323.0	1
87.16796875	0.2	FACES	1	0.316150605286566	0	0	331.0	1
88.27783203125	0.2	SCRAMBLED	0	0.452873215577711	0	0	339.0	1
89.65771484375	0.2	FACES	1	0.466615836266101	0	0	347.0	1
90.8876953125	0.2	FACES	1	0.3825733222493	0	0	355.0	1
91.92724609375	0.2	SCRAMBLED	0	0.385456830682415	0	0	363.0	1
93.02734375	0.2	SCRAMBLED	0	0.347312900960787	0	0	371.0	1
94.29736328125	0.2	SCRAMBLED	0	0.287137131607778	0	0	379.0	1
95.29736328125	0.2	SCRAMBLED	0	0.385967549436828	0	0	388.0	1
n/a	0.2	FACES	1	n/a	1	1	n/a	0
n/a	0.2	FACES	1	0.348682061879117	1	0	n/a	1
98.72705078125	0.2	FACES	1	0.282570847135503	0	0	397.0	1
99.69677734375	0.2	FACES	1	0.315443990270978	0	0	407.0	1
100.796875	0.2	SCRAMBLED	0	0.410971035726106	0	0	415.0	1
101.896484375	0.2	FACES	1	0.346959140688341	0	0	423.0	1
n/a	0.2	SCRAMBLED	0	n/a	1	1	n/a	0
n/a	0.2	FACES	1	0.368835531054174	1	0	n/a	1
105.1865234375	0.2	SCRAMBLED	0	0.507613090096129	0	0	431.0	1
n/a	0.2	SCRAMBLED	0	n/a	1	1	n/a	0
n/a	0.2	FACES	1	0.347505476945116	1	0	n/a	1
108.7861328125	0.2	FACES	1	0.456258387468552	0	0	439.0	1
110.1259765625	0.2	FACES	1	0.357021688643727	0	0	447.0	1
111.326171875	0.2	FACES	1	0.347854407726118	0	0	455.0	1
112.6259765625	0.2	SCRAMBLED	0	0.399681495016921	0	0	463.0	1
113.755859375	0.2	FACES	1	0.67650222850898	0	0	471.0	1
115.2255859375	0.2	SCRAMBLED	0	0.723401724973883	0	0	479.0	1
116.8154296875	0.2	FACES	1	0.37099461572052	0	0	485.0	1
118.015625	0.2	FACES	1	0.358005093906286	0	0	493.0	1
119.04541015625	0.2	FACES	1	0.486887024302632	0	0	501.0	1
120.365234375	0.2	SCRAMBLED	0	0.41378029072348	0	0	509.0	1
121.6650390625	0.2	FACES	1	0.408516446532303	0	0	517.0	1
122.8349609375	0.2	FACES	1	0.36944042489813	0	0	525.0	1
123.98486328125	0.2	FACES	1	0.326163047265254	0	0	533.0	1
125.134765625	0.2	FACES	1	0.32708336729047	0	0	541.0	1
126.28466796875	0.2	SCRAMBLED	0	0.375003697579814	0	0	549.0	1
127.41455078125	0.2	FACES	1	0.37986427920714	0	0	557.0	1
128.58447265625	0.2	SCRAMBLED	0	0.392290863385824	0	0	565.0	1
129.724609375	0.2	SCRAMBLED	0	0.431495168394576	0	0	573.0	1
131.08447265625	0.2	FACES	1	0.328413288588308	0	0	581.0	1
132.17431640625	0.2	SCRAMBLED	0	0.377543708409576	0	0	589.0	1
133.2041015625	0.2	FACES	1	0.300977549503841	0	0	597.0	1
134.4541015625	0.2	SCRAMBLED	0	0.422943647678949	0	0	605.0	1
135.7138671875	0.2	FACES	1	0.518596561764753	0	0	613.0	1
137.0439453125	0.2	SCRAMBLED	0	0.427649685570032	0	0	621.0	1
138.423828125	0.2	SCRAMBLED	0	0.299489160507619	0	0	629.0	1
139.56396484375	0.2	SCRAMBLED	0	0.363121336754375	0	0	637.0	1
140.763671875	0.2	SCRAMBLED	0	0.343170404391458	0	0	645.0	1
141.8134765625	0.2	FACES	1	0.360952593105139	0	0	653.0	1
142.93359375	0.2	FACES	1	0.359839697094685	0	0	661.0	1
144.18359375	0.2	FACES	1	0.287059256052999	0	0	669.0	1
145.41357421875	0.2	FACES	1	0.270481120007389	0	0	677.0	1
146.35302734375	0.2	SCRAMBLED	0	0.4953821003337	0	0	687.0	1
147.67333984375	0.2	SCRAMBLED	0	n/a	0	1	695.0	0
148.8232421875	0.2	FACES	1	0.38095091485684	0	0	703.0	1
150.10302734375	0.2	SCRAMBLED	0	0.426956955343485	0	0	711.0	1
151.49267578125	0.2	FACES	1	0.319740426891258	0	0	719.0	1
152.74267578125	0.2	FACES	1	0.366609739032356	0	0	727.0	1
153.87255859375	0.2	FACES	1	0.32041474467951	0	0	735.0	1
155.1025390625	0.2	FACES	1	0.331205338519794	0	0	743.0	1
156.1923828125	0.2	SCRAMBLED	0	0.407163585148737	0	0	751.0	1
157.47265625	0.2	FACES	1	0.336962696401315	0	0	759.0	1
158.67236328125	0.2	SCRAMBLED	0	0.328858205517463	0	0	767.0	1
159.7421875	0.2	FACES	1	0.424641817723568	0	0	775.0	1
160.8623046875	0.2	FACES	1	0.427474918336884	0	0	783.0	1
162.06201171875	0.2	SCRAMBLED	0	0.421406963764639	0	0	791.0	1
163.23193359375	0.2	SCRAMBLED	0	0.462218584005313	0	0	799.0	1
164.58203125	0.2	SCRAMBLED	0	0.42494788676504	0	0	807.0	1
165.81201171875	0.2	SCRAMBLED	0	0.379919516520204	0	0	815.0	1
166.9814453125	0.2	SCRAMBLED	0	0.373720863827657	0	0	823.0	1
168.2314453125	0.2	SCRAMBLED	0	0.363488981816772	0	0	831.0	1
169.45166015625	0.2	FACES	1	0.373503536697172	0	0	839.0	1
170.78125	0.2	SCRAMBLED	0	0.489251966056145	0	0	847.0	1
172.0712890625	0.2	FACES	1	0.406117396493755	0	0	855.0	1
173.14111328125	0.2	SCRAMBLED	0	0.507923083098831	0	0	863.0	1
174.3212890625	0.2	FACES	1	0.304516057758519	0	0	871.0	1
175.47119140625	0.2	SCRAMBLED	0	0.419677100179797	0	0	879.0	1
n/a	0.2	SCRAMBLED	0	n/a	1	1	n/a	0
n/a	0.2	FACES	1	0.328437737889544	1	0	n/a	1
179.11083984375	0.2	SCRAMBLED	0	0.508145843407874	0	0	887.0	1
180.54052734375	0.2	SCRAMBLED	0	0.373957207080821	0	0	895.0	1
181.6806640625	0.2	FACES	1	0.451938708920352	0	0	903.0	1
183.01025390625	0.2	SCRAMBLED	0	0.45170659147152	0	0	911.0	1
184.18017578125	0.2	FACES	1	0.391548932712794	0	0	919.0	1
185.5302734375	0.2	FACES	1	0.373437433028812	0	0	927.0	1
186.6103515625	0.2	FACES	1	0.461178734057285	0	0	935.0	1
187.89990234375	0.2	SCRAMBLED	0	0.394024650932806	0	0	943.0	1
189.27001953125	0.2	SCRAMBLED	0	0.357948951064827	0	0	951.0	1
190.5498046875	0.2	FACES	1	0.348438172543865	0	0	959.0	1
191.81982421875	0.2	SCRAMBLED	0	0.376591091157024	0	0	967.0	1
192.99951171875	0.2	SCRAMBLED	0	0.308434888489501	0	0	975.0	1
194.11962890625	0.2	FACES	1	0.383230133131292	0	0	983.0	1
195.33935546875	0.2	SCRAMBLED	0	0.433412778473212	0	0	991.0	1
196.5595703125	0.2	SCRAMBLED	0	0.49290879685941	0	0	999.0	1
198.00927734375	0.2	FACES	1	0.323700006459148	0	0	1007.0	1
199.22900390625	0.2	SCRAMBLED	0	0.290654208993146	0	0	1015.0	1
200.17919921875	0.2	FACES	1	0.310533906353157	0	0	1025.0	1
201.18896484375	0.2	FACES	1	0.582287899285802	0	0	1033.0	1
202.5791015625	0.2	FACES	1	0.382778575649354	0	0	1041.0	1
203.90869140625	0.2	FACES	1	0.294852848403934	0	0	1049.0	1
205.0986328125	0.2	FACES	1	0.405859018683259	0	0	1057.0	1
206.27880859375	0.2	FACES	1	0.358702351781176	0	0	1065.0	1
207.3984375	0.2	FACES	1	0.391548932712794	0	0	1073.0	1
256.43505859375	0.2	SCRAMBLED	0	0.397020143205737	0	0	1077.0	1
257.65478515625	0.2	SCRAMBLED	0	0.427983826031777	0	0	1085.0	1
258.83447265625	0.2	SCRAMBLED	0	0.398405603659739	0	0	1093.0	1
259.974609375	0.2	SCRAMBLED	0	0.301729742847783	0	0	1101.0	1
261.08447265625	0.2	SCRAMBLED	0	0.378496023819025	0	0	1109.0	1
262.12451171875	0.2	SCRAMBLED	0	0.487508821368465	0	0	1117.0	1
263.55419921875	0.2	SCRAMBLED	0	0.403379074658005	0	0	1125.0	1
264.84423828125	0.2	SCRAMBLED	0	0.351027383821929	0	0	1133.0	1
265.92431640625	0.2	FACES	1	0.395823334775741	0	0	1141.0	1
267.1640625	0.2	FACES	1	0.327866952331533	0	0	1149.0	1
268.2939453125	0.2	FACES	1	0.323723852075091	0	0	1157.0	1
269.49365234375	0.2	FACES	1	0.316629932344767	0	0	1165.0	1
270.78369140625	0.2	SCRAMBLED	0	0.489443032824056	0	0	1173.0	1
272.18359375	0.2	SCRAMBLED	0	0.349209080169203	0	0	1181.0	1
273.38330078125	0.2	SCRAMBLED	0	0.339964527383017	0	0	1189.0	1
274.38330078125	0.2	SCRAMBLED	0	0.355938976956168	0	0	1198.0	1
275.5634765625	0.2	FACES	1	0.377783673782687	0	0	1206.0	1
276.783203125	0.2	FACES	1	0.298669656122001	0	0	1214.0	1
277.8232421875	0.2	FACES	1	0.386517205970449	0	0	1222.0	1
279.05322265625	0.2	FACES	1	0.273121040949263	0	0	1230.0	1
280.1728515625	0.2	SCRAMBLED	0	0.401171695072662	0	0	1238.0	1
281.453125	0.2	FACES	1	0.317959249956402	0	0	1246.0	1
282.74267578125	0.2	SCRAMBLED	0	0.36863601267487	0	0	1254.0	1
283.802734375	0.2	SCRAMBLED	0	0.348759333747694	0	0	1262.0	1
285.12255859375	0.2	FACES	1	0.413495048865116	0	0	1270.0	1
286.22265625	0.2	SCRAMBLED	0	0.332311292136183	0	0	1278.0	1
287.21240234375	0.2	FACES	1	0.372198064702388	0	0	1288.0	1
n/a	0.2	SCRAMBLED	0	n/a	1	1	n/a	0
n/a	0.2	FACES	1	0.358990310228364	1	0	n/a	1
290.96240234375	0.2	SCRAMBLED	0	0.333828959926905	0	0	1296.0	1
292.09228515625	0.2	FACES	1	0.403673371812147	0	0	1304.0	1
293.162109375	0.2	SCRAMBLED	0	0.37732457022048	0	0	1312.0	1
294.35205078125	0.2	FACES	1	0.28429195726585	0	0	1320.0	1
295.31201171875	0.2	FACES	1	0.44715087151144	0	0	1330.0	1
296.4619140625	0.2	FACES	1	0.252120297810507	0	0	1338.0	1
297.6318359375	0.2	SCRAMBLED	0	0.487944984844034	0	0	1346.0	1
298.95166015625	0.2	FACES	1	0.338716405603009	0	0	1354.0	1
299.9716796875	0.2	FACES	1	0.326663805192766	0	0	1362.0	1
301.201171875	0.2	FACES	1	0.343092226993576	0	0	1370.0	1
302.22119140625	0.2	SCRAMBLED	0	0.377230696974038	0	0	1378.0	1
303.25146484375	0.2	SCRAMBLED	0	n/a	0	1	1386.0	0
304.35107421875	0.2	FACES	1	0.332955123758438	0	0	1394.0	1
305.61083984375	0.2	FACES	1	0.359076033708334	0	0	1402.0	1
306.76123046875	0.2	SCRAMBLED	0	0.302745445336768	0	0	1410.0	1
307.791015625	0.2	FACES	1	0.307442729773356	0	0	1418.0	1
308.890625	0.2	SCRAMBLED	0	0.403644093018556	0	0	1426.0	1
309.98095703125	0.2	SCRAMBLED	0	0.382446246247127	0	0	1434.0	1
311.08056640625	0.2	SCRAMBLED	0	0.388213564956459	0	0	1442.0	1
312.3603515625	0.2	FACES	1	0.333015190562037	0	0	1450.0	1
313.51025390625	0.2	SCRAMBLED	0	0.348939836002501	0	0	1458.0	1
314.55029296875	0.2	FACES	1	0.357654955752878	0	0	1466.0	1
315.8603515625	0.2	SCRAMBLED	0	0.398497364003561	0	0	1474.0	1
317.10009765625	0.2	SCRAMBLED	0	0.393439678741743	0	0	1482.0	1
318.330078125	0.2	SCRAMBLED	0	0.343314383615507	0	0	1490.0	1
319.3798828125	0.2	SCRAMBLED	0	0.318045275277655	0	0	1498.0	1
320.39990234375	0.2	FACES	1	0.369983139036776	0	0	1506.0	1
321.43994140625	0.2	SCRAMBLED	0	0.317900088681199	0	0	1514.0	1
322.56982421875	0.2	FACES	1	0.243729659538985	0	0	1522.0	1
323.4697265625	0.2	SCRAMBLED	0	0.358532414039473	0	0	1532.0	1
324.6494140625	0.2	FACES	1	0.308447867748328	0	0	1540.0	1
325.91943359375	0.2	FACES	1	0.323289801501232	0	0	1548.0	1
327.20947265625	0.2	FACES	1	0.291141383975628	0	0	1556.0	1
328.3095703125	0.2	SCRAMBLED	0	0.339947020474938	0	0	1564.0	1
329.5791015625	0.2	FACES	1	0.359134591295515	0	0	1572.0	1
330.88916015625	0.2	FACES	1	0.382659951258574	0	0	1580.0	1
332.17919921875	0.2	FACES	1	0.333454976157554	0	0	1588.0	1
333.2587890625	0.2	SCRAMBLED	0	0.37922738997986	0	0	1596.0	1
334.4990234375	0.2	FACES	1	0.222240232201329	0	0	1604.0	1
335.62890625	0.2	SCRAMBLED	0	n/a	0	1	1612.0	0
336.798828125	0.2	FACES	1	0.286646032663157	0	0	1620.0	1
337.82861328125	0.2	FACES	1	0.343436328282223	0	0	1628.0	1
339.11865234375	0.2	SCRAMBLED	0	0.372529790418412	0	0	1636.0	1
340.41845703125	0.2	FACES	1	0.338391622280142	0	0	1644.0	1
n/a	0.2	SCRAMBLED	0	n/a	1	1	n/a	0
n/a	0.2	FACES	1	0.312013240051783	1	0	n/a	1
343.89794921875	0.2	SCRAMBLED	0	0.392968803294025	0	0	1653.0	1
345.158203125	0.2	FACES	1	0.423781262658849	0	0	1661.0	1
346.48779296875	0.2	SCRAMBLED	0	0.386655148328828	0	0	1669.0	1
n/a	0.2	SCRAMBLED	0	n/a	1	1	n/a	0
n/a	0.2	SCRAMBLED	0	0.427170962198034	1	0	n/a	1
350.0576171875	0.2	FACES	1	0.383128110116559	0	0	1677.0	1
351.37744140625	0.2	FACES	1	0.39895284544582	0	0	1685.0	1
352.607421875	0.2	SCRAMBLED	0	0.403868966229311	0	0	1693.0	1
353.857421875	0.2	SCRAMBLED	0	0.573735171195949	0	0	1701.0	1
355.1572265625	0.2	SCRAMBLED	0	0.452654681075728	0	0	1709.0	1
356.4970703125	0.2	FACES	1	0.407286435346577	0	0	1717.0	1
357.59716796875	0.2	FACES	1	0.477202384078737	0	0	1725.0	1
358.94677734375	0.2	SCRAMBLED	0	0.444795588741727	0	0	1733.0	1
360.27685546875	0.2	SCRAMBLED	0	0.314577096497487	0	0	1741.0	1
361.28662109375	0.2	SCRAMBLED	0	0.422555477277456	0	0	1749.0	1
362.63671875	0.2	FACES	1	0.388558571774411	0	0	1757.0	1
363.79638671875	0.2	FACES	1	0.378406074534723	0	0	1765.0	1
364.9365234375	0.2	FACES	1	0.372462479376736	0	0	1773.0	1
366.20654296875	0.2	FACES	1	0.37708098272924	0	0	1781.0	1
367.236328125	0.2	FACES	1	0.620960054669922	0	0	1789.0	1
368.63623046875	0.2	SCRAMBLED	0	0.363731663777799	0	0	1797.0	1
369.88623046875	0.2	FACES	1	0.418559374676988	0	0	1805.0	1
371.005859375	0.2	FACES	1	0.402424948188127	0	0	1813.0	1
372.326171875	0.2	SCRAMBLED	0	0.449173221192723	0	0	1821.0	1
373.47607421875	0.2	FACES	1	0.312199175485148	0	0	1829.0	1
374.5556640625	0.2	SCRAMBLED	0	0.327010321227135	0	0	1837.0	1
375.6455078125	0.2	SCRAMBLED	0	0.377989832712046	0	0	1845.0	1
376.775390625	0.2	FACES	1	0.532760555608547	0	0	1853.0	1
378.04541015625	0.2	SCRAMBLED	0	0.422498428905783	0	0	1861.0	1
379.3154296875	0.2	SCRAMBLED	0	0.404466313992998	0	0	1869.0	1
380.4951171875	0.2	FACES	1	0.346114281471273	0	0	1877.0	1
381.7451171875	0.2	SCRAMBLED	0	0.468053213754501	0	0	1885.0	1
383.03515625	0.2	SCRAMBLED	0	0.408812856589975	0	0	1893.0	1
384.2548828125	0.2	FACES	1	0.373766743998203	0	0	1901.0	1
385.3349609375	0.2	FACES	1	0.383591137641815	0	0	1909.0	1
386.384765625	0.2	SCRAMBLED	0	n/a	0	1	1917.0	0
387.46484375	0.2	FACES	1	0.342379575113227	0	0	1925.0	1
388.52490234375	0.2	FACES	1	0.542217606032864	0	0	1933.0	1
389.87451171875	0.2	SCRAMBLED	0	0.408832174557574	0	0	1941.0	1
391.1845703125	0.2	FACES	1	0.533929292618268	0	0	1949.0	1
392.59423828125	0.2	SCRAMBLED	0	0.439695343585299	0	0	1957.0	1
393.744140625	0.2	SCRAMBLED	0	0.567268783554027	0	0	1965.0	1
395.05419921875	0.2	FACES	1	0.402304512737828	0	0	1973.0	1
396.39404296875	0.2	SCRAMBLED	0	0.374433515707096	0	0	1981.0	1
397.52392578125	0.2	FACES	1	0.421992539642815	0	0	1989.0	1
398.86376953125	0.2	SCRAMBLED	0	0.429996818571453	0	0	1997.0	1
400.23388671875	0.2	FACES	1	0.366709347299548	0	0	2005.0	1
401.333984375	0.2	SCRAMBLED	0	0.343564309813701	0	0	2013.0	1
402.6337890625	0.2	SCRAMBLED	0	n/a	0	1	2021.0	0
403.83349609375	0.2	FACES	1	0.392238342663404	0	0	2029.0	1
405.08349609375	0.2	SCRAMBLED	0	0.509067974492609	0	0	2037.0	1
406.4033203125	0.2	SCRAMBLED	0	0.399960700010524	0	0	2045.0	1
407.7333984375	0.2	FACES	1	0.368765201579663	0	0	2053.0	1
408.92333984375	0.2	SCRAMBLED	0	0.329668956449495	0	0	2061.0	1
409.93310546875	0.2	SCRAMBLED	0	0.463492664303885	0	0	2069.0	1
411.2529296875	0.2	FACES	1	0.440227795053033	0	0	2077.0	1
412.57275390625	0.2	FACES	1	0.358182577729167	0	0	2085.0	1
413.6728515625	0.2	SCRAMBLED	0	0.351810365175879	0	0	2093.0	1
414.90283203125	0.2	FACES	1	0.368826173913476	0	0	2101.0	1
416.21240234375	0.2	FACES	1	0.448651032394082	0	0	2109.0	1
417.3623046875	0.2	SCRAMBLED	0	0.498514931279715	0	0	2117.0	1
418.7421875	0.2	SCRAMBLED	0	0.382169456000156	0	0	2125.0	1
419.9921875	0.2	FACES	1	0.403067572437976	0	0	2133.0	1
421.2421875	0.2	SCRAMBLED	0	0.448986380229144	0	0	2141.0	1
422.5322265625	0.2	FACES	1	0.378509304921863	0	0	2149.0	1
423.6318359375	0.2	SCRAMBLED	0	0.327773682771294	0	0	2157.0	1
424.76171875	0.2	SCRAMBLED	0	0.437566141398747	0	0	2165.0	1
425.86181640625	0.2	FACES	1	0.412465461587999	0	0	2173.0	1
427.03173828125	0.2	FACES	1	0.612222296676919	0	0	2181.0	1
428.5517578125	0.2	FACES	1	0.663991430066744	0	0	2187.0	1
429.9013671875	0.2	FACES	1	0.456572908120506	0	0	2195.0	1
431.181640625	0.2	FACES	1	0.308750918357873	0	0	2203.0	1
432.271484375	0.2	SCRAMBLED	0	0.363536974890849	0	0	2211.0	1
433.50146484375	0.2	FACES	1	0.363338663884861	0	0	2219.0	1
434.69140625	0.2	FACES	1	0.298246471905259	0	0	2227.0	1
453.64990234375	0.2	SCRAMBLED	0	0.495561697059202	0	0	2231.0	1
455.0498046875	0.2	SCRAMBLED	0	0.27872959011529	0	0	2239.0	1
456.009765625	0.2	SCRAMBLED	0	0.407511610399524	0	0	2249.0	1
457.0693359375	0.2	SCRAMBLED	0	0.377435346687889	0	0	2257.0	1
458.2392578125	0.2	FACES	1	0.415232156688035	0	0	2265.0	1
459.58935546875	0.2	SCRAMBLED	0	0.453298814541085	0	0	2273.0	1
460.97900390625	0.2	FACES	1	0.347964882350425	0	0	2281.0	1
461.97900390625	0.2	SCRAMBLED	0	0.437774413231637	0	0	2290.0	1
463.17919921875	0.2	FACES	1	0.361610913202639	0	0	2298.0	1
464.47900390625	0.2	SCRAMBLED	0	0.323493545686688	0	0	2306.0	1
465.47900390625	0.2	FACES	1	0.367323900128213	0	0	2315.0	1
466.77880859375	0.2	FACES	1	0.288175774182491	0	0	2323.0	1
468.02880859375	0.2	FACES	1	0.304593027783994	0	0	2331.0	1
n/a	0.2	SCRAMBLED	0	n/a	1	1	n/a	0
n/a	0.2	FACES	1	0.30871922481856	1	0	n/a	1
471.71826171875	0.2	FACES	1	0.383970554588814	0	0	2339.0	1
473.04833984375	0.2	FACES	1	0.362340770147057	0	0	2347.0	1
474.34814453125	0.2	FACES	1	0.336173678183513	0	0	2355.0	1
475.6181640625	0.2	FACES	1	0.372034163824537	0	0	2363.0	1
n/a	0.2	SCRAMBLED	0	n/a	1	1	n/a	0
n/a	0.2	SCRAMBLED	0	0.364697260290086	1	0	n/a	1
479.2578125	0.2	FACES	1	0.353500083610015	0	0	2371.0	1
480.53759765625	0.2	FACES	1	0.398418281074555	0	0	2379.0	1
481.77783203125	0.2	SCRAMBLED	0	0.374258446629938	0	0	2387.0	1
483.0576171875	0.2	FACES	1	0.312975214444123	0	0	2395.0	1
484.09716796875	0.2	FACES	1	0.467836188468937	0	0	2403.0	1
485.27734375	0.2	SCRAMBLED	0	0.377794841981995	0	0	2411.0	1
486.3671875	0.2	SCRAMBLED	0	0.407533946799958	0	0	2419.0	1
487.6669921875	0.2	FACES	1	0.338549788136334	0	0	2427.0	1
488.876953125	0.2	FACES	1	0.388354827589865	0	0	2435.0	1
490.14697265625	0.2	FACES	1	0.357060626421116	0	0	2443.0	1
491.2470703125	0.2	SCRAMBLED	0	0.382031211797766	0	0	2451.0	1
492.466796875	0.2	SCRAMBLED	0	0.454887415491612	0	0	2459.0	1
493.716796875	0.2	FACES	1	0.36356444262492	0	0	2467.0	1
494.90673828125	0.2	SCRAMBLED	0	0.439481336730751	0	0	2475.0	1
496.1064453125	0.2	SCRAMBLED	0	0.417167273672931	0	0	2483.0	1
497.40625	0.2	FACES	1	0.308260724942556	0	0	2491.0	1
498.62646484375	0.2	SCRAMBLED	0	n/a	0	1	2499.0	0
499.7763671875	0.2	FACES	1	0.388987189168802	0	0	2507.0	1
501.02587890625	0.2	SCRAMBLED	0	0.578753013150163	0	0	2515.0	1
502.42578125	0.2	SCRAMBLED	0	0.334477621040605	0	0	2523.0	1
503.6259765625	0.2	SCRAMBLED	0	0.429151959355295	0	0	2531.0	1
505.005859375	0.2	FACES	1	0.342094333254863	0	0	2539.0	1
506.0556640625	0.2	FACES	1	0.412028392582215	0	0	2547.0	1
507.2158203125	0.2	FACES	1	0.396975168564495	0	0	2555.0	1
508.525390625	0.2	FACES	1	0.359739183297279	0	0	2563.0	1
509.865234375	0.2	SCRAMBLED	0	0.52849973649154	0	0	2571.0	1
511.08544921875	0.2	SCRAMBLED	0	0.381473103654571	0	0	2579.0	1
512.14501953125	0.2	SCRAMBLED	0	0.392187029313391	0	0	2587.0	1
513.26513671875	0.2	SCRAMBLED	0	0.372246359619567	0	0	2595.0	1
514.34521484375	0.2	SCRAMBLED	0	0.457898905455295	0	0	2603.0	1
515.55517578125	0.2	SCRAMBLED	0	0.342928929802838	0	0	2611.0	1
516.5849609375	0.2	FACES	1	0.296814829437608	0	0	2619.0	1
517.78466796875	0.2	FACES	1	0.362557191746419	0	0	2627.0	1
518.98486328125	0.2	SCRAMBLED	0	0.354720737655953	0	0	2635.0	1
520.2744140625	0.2	FACES	1	n/a	0	1	2643.0	0
521.5244140625	0.2	FACES	1	0.313060937924092	0	0	2651.0	1
522.57470703125	0.2	FACES	1	0.30699932205971	0	0	2659.0	1
523.6943359375	0.2	SCRAMBLED	0	0.348818193177976	0	0	2667.0	1
524.89404296875	0.2	FACES	1	0.353584297873567	0	0	2675.0	1
525.9541015625	0.2	FACES	1	0.402497390565259	0	0	2683.0	1
527.2138671875	0.2	SCRAMBLED	0	0.388211452052929	0	0	2691.0	1
528.51416015625	0.2	FACES	1	0.343264579481001	0	0	2699.0	1
529.763671875	0.2	SCRAMBLED	0	0.350044582245573	0	0	2707.0	1
530.78369140625	0.2	SCRAMBLED	0	n/a	0	1	2715.0	0
531.91357421875	0.2	SCRAMBLED	0	0.394605699162639	0	0	2723.0	1
532.98388671875	0.2	SCRAMBLED	0	0.413630576478681	0	0	2731.0	1
534.11376953125	0.2	SCRAMBLED	0	0.37733030524214	0	0	2739.0	1
535.25341796875	0.2	FACES	1	0.340362054924299	0	0	2747.0	1
536.533203125	0.2	SCRAMBLED	0	n/a	0	1	2755.0	0
537.5732421875	0.2	FACES	1	0.417066458032423	0	0	2763.0	1
538.80322265625	0.2	FACES	1	0.423831670478648	0	0	2771.0	1
539.98291015625	0.2	FACES	1	0.451574685976993	0	0	2779.0	1
541.23291015625	0.2	FACES	1	0.402618731546681	0	0	2787.0	1
542.52294921875	0.2	SCRAMBLED	0	0.363384242214124	0	0	2795.0	1
543.72265625	0.2	SCRAMBLED	0	0.334315531222273	0	0	2803.0	1
544.8427734375	0.2	FACES	1	0.348057246380449	0	0	2811.0	1
545.97265625	0.2	FACES	1	0.408955628440708	0	0	2819.0	1
547.3427734375	0.2	FACES	1	0.36375913151187	0	0	2827.0	1
548.59228515625	0.2	SCRAMBLED	0	0.363593419576318	0	0	2835.0	1
549.84228515625	0.2	SCRAMBLED	0	0.523467406062082	0	0	2843.0	1
551.08251953125	0.2	SCRAMBLED	0	0.447292737832868	0	0	2851.0	1
552.412109375	0.2	SCRAMBLED	0	0.273097195333321	0	0	2859.0	1
553.58203125	0.2	FACES	1	0.364035318073547	0	0	2867.0	1
554.81201171875	0.2	FACES	1	0.359754275458727	0	0	2875.0	1
555.83203125	0.2	FACES	1	0.432392548335883	0	0	2883.0	1
556.95166015625	0.2	SCRAMBLED	0	0.241578120953818	0	0	2891.0	1
557.8515625	0.2	FACES	1	0.392353344936055	0	0	2901.0	1
559.08154296875	0.2	SCRAMBLED	0	0.382273591916601	0	0	2909.0	1
560.2216796875	0.2	FACES	1	0.32106310395011	0	0	2917.0	1
561.3515625	0.2	FACES	1	0.364009661398086	0	0	2925.0	1
562.55126953125	0.2	SCRAMBLED	0	0.343811821267991	0	0	2933.0	1
563.62109375	0.2	FACES	1	0.347696845557039	0	0	2941.0	1
564.6513671875	0.2	FACES	1	0.377571176143647	0	0	2949.0	1
565.9912109375	0.2	SCRAMBLED	0	0.459281045633361	0	0	2957.0	1
567.19091796875	0.2	FACES	1	0.31724599438985	0	0	2965.0	1
568.36083984375	0.2	SCRAMBLED	0	n/a	0	1	2973.0	0
569.36083984375	0.2	SCRAMBLED	0	0.50302477106743	0	0	2982.0	1
570.7607421875	0.2	SCRAMBLED	0	0.362756106439519	0	0	2990.0	1
571.78076171875	0.2	SCRAMBLED	0	0.397656126904621	0	0	2998.0	1
573.0908203125	0.2	SCRAMBLED	0	0.337501788421832	0	0	3006.0	1
574.30029296875	0.2	SCRAMBLED	0	0.409338365663643	0	0	3014.0	1
575.48046875	0.2	SCRAMBLED	0	0.344205726690234	0	0	3022.0	1
576.66015625	0.2	FACES	1	0.349024955794448	0	0	3030.0	1
577.75	0.2	SCRAMBLED	0	0.372809297254207	0	0	3038.0	1
578.85009765625	0.2	SCRAMBLED	0	0.362753088006684	0	0	3046.0	1
580.05029296875	0.2	SCRAMBLED	0	0.283567533499991	0	0	3054.0	1
581.0498046875	0.2	FACES	1	0.331328490559827	0	0	3063.0	1
582.2197265625	0.2	SCRAMBLED	0	0.384622837821553	0	0	3071.0	1
583.53955078125	0.2	SCRAMBLED	0	0.292097019660105	0	0	3079.0	1
584.53955078125	0.2	FACES	1	0.321915811091458	0	0	3088.0	1
585.61962890625	0.2	SCRAMBLED	0	0.397863795051308	0	0	3096.0	1
586.95947265625	0.2	FACES	1	0.328617334615956	0	0	3104.0	1
588.2392578125	0.2	SCRAMBLED	0	0.298556163065768	0	0	3112.0	1
589.26953125	0.2	SCRAMBLED	0	0.462147349001498	0	0	3120.0	1
590.62939453125	0.2	SCRAMBLED	0	n/a	0	1	3128.0	0
591.80908203125	0.2	SCRAMBLED	0	n/a	0	1	3136.0	0
592.97900390625	0.2	FACES	1	0.383849817294504	0	0	3144.0	1
594.10888671875	0.2	FACES	1	0.661743301646311	0	0	3152.0	1
595.52880859375	0.2	FACES	1	0.391372354419218	0	0	3160.0	1
596.708984375	0.2	FACES	1	0.388495486537977	0	0	3168.0	1
598.048828125	0.2	FACES	1	0.383143504122017	0	0	3176.0	1
599.1787109375	0.2	SCRAMBLED	0	0.422064076489733	0	0	3184.0	1
600.478515625	0.2	SCRAMBLED	0	0.483881873045902	0	0	3192.0	1
601.7685546875	0.2	FACES	1	0.343783749846807	0	0	3200.0	1
602.8681640625	0.2	FACES	1	0.412556618244707	0	0	3208.0	1
603.96826171875	0.2	SCRAMBLED	0	0.372503228213645	0	0	3216.0	1
604.998046875	0.2	FACES	1	0.362102917677475	0	0	3224.0	1
606.158203125	0.2	FACES	1	0.348014082797818	0	0	3232.0	1
607.2578125	0.2	FACES	1	0.321064311323425	0	0	3240.0	1
608.2578125	0.2	FACES	1	0.466975331559297	0	0	3249.0	1
609.3876953125	0.2	FACES	1	0.401798019787748	0	0	3257.0	1
610.52783203125	0.2	FACES	1	0.366700593845962	0	0	3265.0	1
611.677734375	0.2	SCRAMBLED	0	0.374571458065475	0	0	3273.0	1
612.82763671875	0.2	SCRAMBLED	0	0.393334335452892	0	0	3281.0	1
614.0576171875	0.2	FACES	1	0.347748762594165	0	0	3289.0	1
615.30712890625	0.2	FACES	1	0.293044807421211	0	0	3297.0	1
616.54736328125	0.2	FACES	1	0.367918229459974	0	0	3305.0	1
617.64697265625	0.2	SCRAMBLED	0	0.362787196292629	0	0	3313.0	1
618.947265625	0.2	SCRAMBLED	0	0.383491831216816	0	0	3321.0	1
620.126953125	0.2	SCRAMBLED	0	0.398311428570196	0	0	3329.0	1
621.36669921875	0.2	FACES	1	0.328472148018591	0	0	3337.0	1
622.4169921875	0.2	SCRAMBLED	0	0.377119618663528	0	0	3345.0	1
623.5166015625	0.2	FACES	1	0.345872806882653	0	0	3353.0	1
624.646484375	0.2	FACES	1	0.348760842963202	0	0	3361.0	1
625.78662109375	0.2	SCRAMBLED	0	0.434220209129307	0	0	3369.0	1
626.986328125	0.2	SCRAMBLED	0	0.496527897257693	0	0	3377.0	1
628.38623046875	0.2	FACES	1	0.363357378165347	0	0	3385.0	1
n/a	0.2	FACES	1	0.283493280064249	1	0	n/a	1
n/a	0.2	SCRAMBLED	0	0.462888977831426	1	0	n/a	1
n/a	0.2	FACES	1	0.33147911033484	1	0	n/a	1
n/a	0.2	FACES	1	0.344838088269171	1	0	n/a	1
n/a	0.2	SCRAMBLED	0	n/a	1	1	n/a	0
n/a	0.2	SCRAMBLED	0	0.262488914807363	1	0	n/a	1
n/a	0.2	SCRAMBLED	0	0.278362548740915	1	0	n/a	1
660.14404296875	0.2	SCRAMBLED	0	0.357216981217789	0	0	3394.0	1
661.3837890625	0.2	FACES	1	0.359707489757056	0	0	3402.0	1
662.48388671875	0.2	FACES	1	0.385881222272474	0	0	3410.0	1
663.6435546875	0.2	SCRAMBLED	0	0.424789720909757	0	0	3418.0	1
664.8837890625	0.2	SCRAMBLED	0	0.448581306606684	0	0	3426.0	1
666.20361328125	0.2	SCRAMBLED	0	0.399564681684751	0	0	3434.0	1
667.43359375	0.2	SCRAMBLED	0	0.273055239123096	0	0	3442.0	1
668.58349609375	0.2	SCRAMBLED	0	0.334253653360065	0	0	3450.0	1
669.63330078125	0.2	FACES	1	0.562073759620944	0	0	3458.0	1
670.9033203125	0.2	FACES	1	0.281824388812311	0	0	3466.0	1
671.8828125	0.2	FACES	1	0.362642915226388	0	0	3476.0	1
673.203125	0.2	FACES	1	0.372415089987953	0	0	3484.0	1
674.24267578125	0.2	FACES	1	0.35138204962459	0	0	3492.0	1
675.5029296875	0.2	FACES	1	0.293302279701493	0	0	3500.0	1
676.72265625	0.2	SCRAMBLED	0	0.304121850492265	0	0	3508.0	1
677.99267578125	0.2	SCRAMBLED	0	0.358886777998123	0	0	3516.0	1
679.2626953125	0.2	FACES	1	0.371633014164217	0	0	3524.0	1
680.59228515625	0.2	FACES	1	0.393604485148899	0	0	3532.0	1
681.79248046875	0.2	FACES	1	0.873112951549956	0	0	3540.0	1
683.56201171875	0.2	FACES	1	0.603085803769318	0	0	3545.0	1
684.912109375	0.2	SCRAMBLED	0	0.423064988659462	0	0	3553.0	1
686.06201171875	0.2	SCRAMBLED	0	0.322914308516374	0	0	3561.0	1
687.28173828125	0.2	SCRAMBLED	0	0.304723122218093	0	0	3569.0	1
688.501953125	0.2	SCRAMBLED	0	0.338786433233508	0	0	3577.0	1
689.681640625	0.2	FACES	1	0.252515410606065	0	0	3585.0	1
690.8017578125	0.2	FACES	1	0.253404037092878	0	0	3593.0	1
692.00146484375	0.2	FACES	1	0.393010457661148	0	0	3601.0	1
693.34130859375	0.2	FACES	1	0.408968607700444	0	0	3609.0	1
694.6513671875	0.2	SCRAMBLED	0	0.478853164736393	0	0	3617.0	1
695.89111328125	0.2	SCRAMBLED	0	0.407619670278109	0	0	3625.0	1
696.9912109375	0.2	FACES	1	0.466394585174385	0	0	3633.0	1
698.2109375	0.2	SCRAMBLED	0	0.447207618040011	0	0	3641.0	1
699.49072265625	0.2	FACES	1	0.278129525761869	0	0	3649.0	1
700.4306640625	0.2	SCRAMBLED	0	0.298104303741638	0	0	3659.0	1
701.390625	0.2	SCRAMBLED	0	0.437900281861403	0	0	3669.0	1
702.71044921875	0.2	SCRAMBLED	0	0.423829557576028	0	0	3677.0	1
703.99072265625	0.2	SCRAMBLED	0	0.338581481675647	0	0	3685.0	1
705.26025390625	0.2	FACES	1	0.308377538274726	0	0	3693.0	1
706.3505859375	0.2	SCRAMBLED	0	0.417388524765556	0	0	3701.0	1
707.41015625	0.2	SCRAMBLED	0	0.348090449137089	0	0	3709.0	1
708.68017578125	0.2	SCRAMBLED	0	0.298546805925071	0	0	3717.0	1
709.75	0.2	SCRAMBLED	0	0.416946626267418	0	0	3725.0	1
710.919921875	0.2	FACES	1	0.272738303725419	0	0	3733.0	1
711.89990234375	0.2	FACES	1	0.482605981687811	0	0	3743.0	1
713.18994140625	0.2	SCRAMBLED	0	n/a	0	1	3751.0	0
714.31982421875	0.2	FACES	1	0.378299222029455	0	0	3759.0	1
715.349609375	0.2	FACES	1	0.412221572252747	0	0	3767.0	1
716.509765625	0.2	FACES	1	0.396860166291845	0	0	3775.0	1
717.70947265625	0.2	FACES	1	0.353966129566288	0	0	3783.0	1
718.9091796875	0.2	FACES	1	0.343732738339895	0	0	3791.0	1
720.029296875	0.2	FACES	1	0.321420788184696	0	0	3799.0	1
721.189453125	0.2	SCRAMBLED	0	0.369357719852815	0	0	3807.0	1
722.279296875	0.2	SCRAMBLED	0	0.387204201175336	0	0	3815.0	1
723.47900390625	0.2	FACES	1	0.353127005370879	0	0	3823.0	1
724.7587890625	0.2	SCRAMBLED	0	0.323891676914172	0	0	3831.0	1
726.02880859375	0.2	SCRAMBLED	0	0.373799644911742	0	0	3839.0	1
727.298828125	0.2	FACES	1	0.313583126721824	0	0	3847.0	1
728.39892578125	0.2	SCRAMBLED	0	0.294388009820977	0	0	3855.0	1
729.44873046875	0.2	FACES	1	0.302395910868654	0	0	3863.0	1
730.568359375	0.2	FACES	1	0.423270242060426	0	0	3871.0	1
731.6982421875	0.2	FACES	1	0.442071453538119	0	0	3879.0	1
732.9482421875	0.2	SCRAMBLED	0	0.288838018242132	0	0	3887.0	1
733.8984375	0.2	SCRAMBLED	0	0.337802424284746	0	0	3897.0	1
734.9482421875	0.2	FACES	1	0.372556050779167	0	0	3905.0	1
736.21826171875	0.2	FACES	1	0.363449742196281	0	0	3913.0	1
737.41796875	0.2	FACES	1	0.338292617699153	0	0	3921.0	1
738.6376953125	0.2	SCRAMBLED	0	0.39311791385262	0	0	3929.0	1
739.97802734375	0.2	FACES	1	0.358895531451708	0	0	3937.0	1
741.1376953125	0.2	SCRAMBLED	0	0.287854612979572	0	0	3945.0	1
742.107421875	0.2	FACES	1	0.296594483875197	0	0	3955.0	1
743.08740234375	0.2	SCRAMBLED	0	0.342515404568985	0	0	3965.0	1
744.32763671875	0.2	SCRAMBLED	0	0.373398797094524	0	0	3973.0	1
745.37744140625	0.2	SCRAMBLED	0	0.373251195752346	0	0	3981.0	1
746.59716796875	0.2	FACES	1	0.298107020330463	0	0	3989.0	1
747.84716796875	0.2	SCRAMBLED	0	0.399811287608827	0	0	3997.0	1
749.14697265625	0.2	FACES	1	0.333810849332622	0	0	4005.0	1
750.2470703125	0.2	SCRAMBLED	0	0.34564038759072	0	0	4013.0	1
751.296875	0.2	FACES	1	0.322563566675854	0	0	4021.0	1
752.53662109375	0.2	SCRAMBLED	0	0.227358286109848	0	0	4029.0	1
753.466796875	0.2	FACES	1	0.292349662448032	0	0	4039.0	1
754.5966796875	0.2	FACES	1	0.318109869730506	0	0	4047.0	1
755.81640625	0.2	SCRAMBLED	0	0.369933636745372	0	0	4055.0	1
756.8564453125	0.2	SCRAMBLED	0	0.357797123917408	0	0	4063.0	1
757.91650390625	0.2	FACES	1	0.302568263356989	0	0	4071.0	1
759.00634765625	0.2	SCRAMBLED	0	0.443433068375271	0	0	4079.0	1
760.236328125	0.2	SCRAMBLED	0	n/a	0	1	4087.0	0
761.3359375	0.2	FACES	1	0.393171641948356	0	0	4095.0	1
762.67626953125	0.2	FACES	1	0.344025224435427	0	0	4103.0	1
763.97607421875	0.2	FACES	1	0.313833052920927	0	0	4111.0	1
765.02587890625	0.2	SCRAMBLED	0	0.342779819244242	0	0	4119.0	1
766.27587890625	0.2	FACES	1	0.353574638889768	0	0	4127.0	1
767.5458984375	0.2	SCRAMBLED	0	0.338372304313452	0	0	4135.0	1
768.74560546875	0.2	FACES	1	0.273309692971452	0	0	4143.0	1
769.845703125	0.2	FACES	1	0.367147623678648	0	0	4151.0	1
770.87548828125	0.2	FACES	1	0.381869121980344	0	0	4159.0	1
772.04541015625	0.2	SCRAMBLED	0	0.293815715045639	0	0	4167.0	1
773.2451171875	0.2	SCRAMBLED	0	0.316737086693138	0	0	4175.0	1
774.29541015625	0.2	FACES	1	0.346600249080439	0	0	4183.0	1
775.4052734375	0.2	SCRAMBLED	0	0.309588835180875	0	0	4191.0	1
776.65478515625	0.2	FACES	1	0.356248366272666	0	0	4199.0	1
777.86474609375	0.2	SCRAMBLED	0	0.389062348134757	0	0	4207.0	1
779.1748046875	0.2	SCRAMBLED	0	n/a	0	1	4215.0	0
780.32470703125	0.2	FACES	1	0.403806786522182	0	0	4223.0	1
781.58447265625	0.2	FACES	1	0.463620645835363	0	0	4231.0	1
782.87451171875	0.2	SCRAMBLED	0	0.413263233260295	0	0	4239.0	1
784.07421875	0.2	SCRAMBLED	0	0.353345539873771	0	0	4247.0	1
785.29443359375	0.2	FACES	1	0.353126099840665	0	0	4255.0	1
786.30419921875	0.2	SCRAMBLED	0	0.447894613244898	0	0	4263.0	1
787.494140625	0.2	SCRAMBLED	0	0.392915678885402	0	0	4271.0	1
788.744140625	0.2	SCRAMBLED	0	0.368611261529622	0	0	4279.0	1
789.994140625	0.2	SCRAMBLED	0	0.504435284507963	0	0	4287.0	1
791.4140625	0.2	SCRAMBLED	0	0.518320375203075	0	0	4295.0	1
792.66357421875	0.2	SCRAMBLED	0	0.321971350247622	0	0	4303.0	1
793.73388671875	0.2	SCRAMBLED	0	0.353105272657558	0	0	4311.0	1
794.78369140625	0.2	FACES	1	0.322781799336553	0	0	4319.0	1
795.86328125	0.2	FACES	1	0.32282979241063	0	0	4327.0	1
796.88330078125	0.2	FACES	1	0.266590662539784	0	0	4335.0	1
797.953125	0.2	FACES	1	0.381505099037895	0	0	4343.0	1
799.17333984375	0.2	SCRAMBLED	0	0.424366234849913	0	0	4351.0	1
800.30322265625	0.2	FACES	1	0.422181191665004	0	0	4359.0	1
801.63330078125	0.2	SCRAMBLED	0	0.290047805931863	0	0	4367.0	1
802.80322265625	0.2	FACES	1	n/a	0	1	4375.0	0
803.97265625	0.2	FACES	1	0.333774024457853	0	0	4383.0	1
805.02294921875	0.2	FACES	1	0.431621942554557	0	0	4391.0	1
806.29248046875	0.2	SCRAMBLED	0	0.333146190527259	0	0	4399.0	1
807.2724609375	0.2	FACES	1	0.392678128258012	0	0	4409.0	1
808.36279296875	0.2	SCRAMBLED	0	0.37213407393665	0	0	4417.0	1
809.54248046875	0.2	FACES	1	0.353936548929596	0	0	4425.0	1
810.6123046875	0.2	SCRAMBLED	0	0.267851159892416	0	0	4433.0	1
811.63232421875	0.2	FACES	1	0.272754905103284	0	0	4441.0	1
812.732421875	0.2	FACES	1	n/a	0	1	4449.0	0
813.83203125	0.2	SCRAMBLED	0	0.418458860879582	0	0	4457.0	1
815.001953125	0.2	SCRAMBLED	0	0.358545695142311	0	0	4465.0	1
816.33203125	0.2	SCRAMBLED	0	0.377114789172083	0	0	4473.0	1
817.60205078125	0.2	FACES	1	n/a	0	1	4481.0	0
818.65185546875	0.2	SCRAMBLED	0	n/a	0	1	4489.0	0
819.78173828125	0.2	SCRAMBLED	0	0.423626115235493	0	0	4497.0	1
820.8515625	0.2	FACES	1	0.342342750238458	0	0	4505.0	1
822.08154296875	0.2	SCRAMBLED	0	0.294346657297865	0	0	4513.0	1
823.1416015625	0.2	FACES	1	n/a	0	1	4521.0	0
824.271484375	0.2	FACES	1	0.391117296885568	0	0	4529.0	1
825.42138671875	0.2	SCRAMBLED	0	0.39793050240587	0	0	4537.0	1
826.51123046875	0.2	SCRAMBLED	0	0.433872787564724	0	0	4545.0	1
827.77099609375	0.2	FACES	1	0.348630748528194	0	0	4553.0	1
828.86083984375	0.2	FACES	1	0.397347039431224	0	0	4561.0	1
