onset	duration	trial_type	trial_type_id	response_time	bad_epoch	outliers	direction	name_direction	event_num	response_accuracy
30.87841796875	0.2	RANDOM	0	0.969031789525616	0	0	0	NONE	1.0	1
32.47802734375	0.2	RANDOM	0	0.691604954816285	0	0	0	NONE	4.0	1
33.908203125	0.2	RANDOM	0	n/a	0	1	0	NONE	8.0	0
35.09814453125	0.2	RANDOM	0	0.624605415429869	0	0	0	NONE	12.0	1
36.4580078125	0.2	RANDOM	0	0.477914734115075	0	0	0	NONE	16.0	1
37.66748046875	0.2	COHERENT	1	n/a	0	1	0	RIGHT	20.0	0
38.99755859375	0.2	COHERENT	1	0.844570655162897	0	0	0	RIGHT	24.0	1
40.49755859375	0.2	RANDOM	0	0.578378123851508	0	0	0	NONE	28.0	1
41.9375	0.2	COHERENT	1	0.459337792161932	0	0	180	LEFT	32.0	1
43.0673828125	0.2	COHERENT	1	0.684439498239954	0	0	0	RIGHT	36.0	1
44.6171875	0.2	COHERENT	1	n/a	0	1	0	RIGHT	39.0	0
45.6572265625	0.2	COHERENT	1	n/a	0	1	0	RIGHT	43.0	0
46.966796875	0.2	RANDOM	0	n/a	0	1	0	NONE	47.0	0
48.2568359375	0.2	RANDOM	0	n/a	0	1	0	NONE	51.0	0
49.77685546875	0.2	COHERENT	1	n/a	0	1	0	RIGHT	54.0	0
51.13671875	0.2	COHERENT	1	0.589523383493542	0	0	0	RIGHT	58.0	1
52.45654296875	0.2	RANDOM	0	0.713912075480039	0	0	0	NONE	62.0	1
53.99658203125	0.2	COHERENT	1	0.684789938237373	0	0	180	LEFT	65.0	1
55.326171875	0.2	RANDOM	0	0.658416687342651	0	0	0	NONE	69.0	1
56.79638671875	0.2	RANDOM	0	n/a	0	1	0	NONE	73.0	0
58.09619140625	0.2	COHERENT	1	0.850644948442095	0	0	0	RIGHT	77.0	1
59.5458984375	0.2	COHERENT	1	n/a	0	1	180	LEFT	81.0	0
60.9658203125	0.2	RANDOM	0	n/a	0	1	0	NONE	85.0	0
62.666015625	0.2	COHERENT	1	0.737658384691713	0	0	0	RIGHT	88.0	1
64.19580078125	0.2	RANDOM	0	0.559505375526896	0	0	0	NONE	91.0	1
65.5556640625	0.2	RANDOM	0	0.654192994942605	0	0	0	NONE	95.0	1
66.8154296875	0.2	RANDOM	0	n/a	0	1	0	NONE	99.0	0
68.17529296875	0.2	COHERENT	1	n/a	0	1	180	LEFT	103.0	0
69.4052734375	0.2	RANDOM	0	0.588100796322578	0	0	0	NONE	107.0	1
70.68505859375	0.2	COHERENT	1	0.527589377291406	0	0	180	LEFT	111.0	1
72.0751953125	0.2	RANDOM	0	0.669920536750396	0	0	0	NONE	115.0	1
73.544921875	0.2	RANDOM	0	n/a	0	1	0	NONE	119.0	0
74.7548828125	0.2	COHERENT	1	n/a	0	1	180	LEFT	123.0	0
76.0146484375	0.2	RANDOM	0	0.694842525364948	0	0	0	NONE	127.0	1
77.52490234375	0.2	COHERENT	1	0.474717610561129	0	0	0	RIGHT	130.0	1
78.71435546875	0.2	RANDOM	0	n/a	0	1	0	NONE	134.0	0
80.34423828125	0.2	RANDOM	0	0.572257346713741	0	0	0	NONE	137.0	1
81.6845703125	0.2	COHERENT	1	0.81986931395295	0	0	180	LEFT	141.0	1
83.29443359375	0.2	RANDOM	0	0.628932941903258	0	0	0	NONE	144.0	1
84.80419921875	0.2	COHERENT	1	0.794653933711743	0	0	0	RIGHT	147.0	1
86.25390625	0.2	RANDOM	0	0.46988570404028	0	0	0	NONE	151.0	1
87.31396484375	0.2	RANDOM	0	n/a	0	1	0	NONE	155.0	0
88.60400390625	0.2	RANDOM	0	0.459287988028336	0	0	0	NONE	159.0	1
89.73388671875	0.2	COHERENT	1	0.503750402205696	0	0	0	RIGHT	163.0	1
91.103515625	0.2	RANDOM	0	0.575812758189386	0	0	0	NONE	167.0	1
92.28369140625	0.2	COHERENT	1	0.526717352182459	0	0	180	LEFT	171.0	1
93.67333984375	0.2	RANDOM	0	0.590395710445591	0	0	0	NONE	175.0	1
95.103515625	0.2	RANDOM	0	0.418930943700616	0	0	0	NONE	179.0	1
96.25341796875	0.2	COHERENT	1	0.474352682088465	0	0	0	RIGHT	183.0	1
97.36328125	0.2	RANDOM	0	0.513175155404497	0	0	0	NONE	187.0	1
98.76318359375	0.2	RANDOM	0	n/a	0	1	0	NONE	191.0	0
99.9130859375	0.2	COHERENT	1	n/a	0	1	180	LEFT	195.0	0
101.0927734375	0.2	RANDOM	0	n/a	0	1	0	NONE	199.0	0
103.1328125	0.2	COHERENT	1	0.769266200983111	0	0	180	LEFT	200.0	1
104.58251953125	0.2	RANDOM	0	0.483327085177734	0	0	0	NONE	204.0	1
105.91259765625	0.2	RANDOM	0	n/a	0	1	0	NONE	208.0	0
107.13232421875	0.2	COHERENT	1	n/a	0	1	180	LEFT	212.0	0
108.5625	0.2	COHERENT	1	0.607648466123464	0	0	0	RIGHT	216.0	1
109.77197265625	0.2	COHERENT	1	0.678608188765793	0	0	180	LEFT	220.0	1
111.05224609375	0.2	RANDOM	0	0.530393500952414	0	0	0	NONE	224.0	1
112.27197265625	0.2	RANDOM	0	n/a	0	1	0	NONE	228.0	0
113.2919921875	0.2	COHERENT	1	0.399267969783978	0	0	0	RIGHT	232.0	1
114.52197265625	0.2	RANDOM	0	0.613856777798901	0	0	0	NONE	236.0	1
115.91162109375	0.2	RANDOM	0	n/a	0	1	0	NONE	240.0	0
117.021484375	0.2	RANDOM	0	n/a	0	1	0	NONE	244.0	0
118.3212890625	0.2	COHERENT	1	n/a	0	1	0	RIGHT	248.0	0
119.44140625	0.2	COHERENT	1	0.418313976127138	0	0	180	LEFT	252.0	1
120.69140625	0.2	COHERENT	1	0.41412499569924	0	0	180	LEFT	256.0	1
121.93115234375	0.2	RANDOM	0	0.765422831060278	0	0	0	NONE	260.0	1
123.51123046875	0.2	RANDOM	0	n/a	0	1	0	NONE	263.0	0
124.880859375	0.2	COHERENT	1	0.380885414873774	0	0	0	RIGHT	267.0	1
126.03076171875	0.2	COHERENT	1	0.535656439613376	0	0	0	RIGHT	271.0	1
127.45068359375	0.2	COHERENT	1	0.473159193933498	0	0	0	RIGHT	275.0	1
128.7705078125	0.2	RANDOM	0	0.549261721629591	0	0	0	NONE	279.0	1
130.07080078125	0.2	RANDOM	0	n/a	0	1	0	NONE	283.0	0
131.34033203125	0.2	COHERENT	1	0.414860285821305	0	0	180	LEFT	287.0	1
132.55029296875	0.2	COHERENT	1	0.529522079531489	0	0	180	LEFT	291.0	1
133.80029296875	0.2	COHERENT	1	0.634563525625708	0	0	0	RIGHT	295.0	1
135.22021484375	0.2	RANDOM	0	0.444189185681353	0	0	0	NONE	299.0	1
136.3203125	0.2	COHERENT	1	0.498161171007268	0	0	0	RIGHT	303.0	1
137.4599609375	0.2	COHERENT	1	0.478042111960349	0	0	0	RIGHT	307.0	1
138.669921875	0.2	RANDOM	0	n/a	0	1	0	NONE	311.0	0
139.90966796875	0.2	COHERENT	1	0.521625256793413	0	0	0	RIGHT	315.0	1
141.28955078125	0.2	COHERENT	1	0.404791701002068	0	0	180	LEFT	319.0	1
142.40966796875	0.2	COHERENT	1	0.407425886920464	0	0	0	RIGHT	323.0	1
143.70947265625	0.2	COHERENT	1	0.429122982403896	0	0	180	LEFT	327.0	1
144.849609375	0.2	RANDOM	0	0.43788217126712	0	0	0	NONE	331.0	1
146.0595703125	0.2	COHERENT	1	0.33484858637712	0	0	0	RIGHT	335.0	1
147.09912109375	0.2	COHERENT	1	0.427579959781724	0	0	0	RIGHT	339.0	1
148.109375	0.2	RANDOM	0	n/a	0	1	0	NONE	343.0	0
149.22900390625	0.2	RANDOM	0	n/a	0	1	0	NONE	347.0	0
150.81884765625	0.2	COHERENT	1	0.479151084009573	0	0	180	LEFT	350.0	1
151.96875	0.2	RANDOM	0	0.64295416389723	0	0	0	NONE	354.0	1
153.51904296875	0.2	RANDOM	0	0.60905173532683	0	0	0	NONE	357.0	1
154.7685546875	0.2	RANDOM	0	0.777712076566786	0	0	0	NONE	361.0	1
156.40869140625	0.2	COHERENT	1	0.359762123382097	0	0	180	LEFT	364.0	1
157.40869140625	0.2	COHERENT	1	0.588345893030237	0	0	180	LEFT	368.0	1
158.7783203125	0.2	COHERENT	1	0.484324375230244	0	0	180	LEFT	372.0	1
160.00830078125	0.2	RANDOM	0	0.528987817003326	0	0	0	NONE	376.0	1
161.1884765625	0.2	COHERENT	1	0.538070883658293	0	0	0	RIGHT	380.0	1
162.50830078125	0.2	RANDOM	0	0.635948684234791	0	0	0	NONE	384.0	1
163.77783203125	0.2	COHERENT	1	0.460749512975781	0	0	180	LEFT	388.0	1
164.9580078125	0.2	COHERENT	1	0.524565813597292	0	0	180	LEFT	392.0	1
166.3076171875	0.2	RANDOM	0	0.425214112498907	0	0	0	NONE	396.0	1
167.60791015625	0.2	COHERENT	1	0.32422038419827	0	0	180	LEFT	400.0	1
168.77783203125	0.2	COHERENT	1	0.42990656744405	0	0	0	RIGHT	404.0	1
169.9677734375	0.2	RANDOM	0	0.53967518045738	0	0	0	NONE	408.0	1
171.37744140625	0.2	RANDOM	0	n/a	0	1	0	NONE	412.0	0
172.46728515625	0.2	RANDOM	0	n/a	0	1	0	NONE	416.0	0
173.84716796875	0.2	COHERENT	1	0.523366590421574	0	0	0	RIGHT	420.0	1
174.9970703125	0.2	RANDOM	0	0.423000394206611	0	0	0	NONE	424.0	1
176.30712890625	0.2	COHERENT	1	0.553894109771136	0	0	180	LEFT	428.0	1
177.537109375	0.2	COHERENT	1	0.602810220894753	0	0	180	LEFT	432.0	1
178.86669921875	0.2	COHERENT	1	0.564653311914299	0	0	180	LEFT	436.0	1
180.126953125	0.2	COHERENT	1	0.528521167359941	0	0	180	LEFT	440.0	1
181.28662109375	0.2	COHERENT	1	0.563222876819054	0	0	180	LEFT	444.0	1
182.73681640625	0.2	COHERENT	1	1.07894589097759	0	0	180	LEFT	448.0	1
184.5263671875	0.2	RANDOM	0	0.468045667674232	0	0	0	NONE	450.0	1
185.7763671875	0.2	RANDOM	0	0.5446145431697	0	0	0	NONE	454.0	1
186.9560546875	0.2	RANDOM	0	0.528735777900692	0	0	0	NONE	458.0	1
188.22607421875	0.2	RANDOM	0	0.514392187331396	0	0	0	NONE	462.0	1
189.4658203125	0.2	RANDOM	0	0.674172602414728	0	0	0	NONE	466.0	1
190.81591796875	0.2	RANDOM	0	n/a	0	1	0	NONE	470.0	0
191.845703125	0.2	RANDOM	0	n/a	0	1	0	NONE	474.0	0
193.1357421875	0.2	COHERENT	1	n/a	0	1	180	LEFT	478.0	0
194.36572265625	0.2	COHERENT	1	0.553781824087309	0	0	0	RIGHT	482.0	1
195.7158203125	0.2	COHERENT	1	0.469561826248537	0	0	180	LEFT	486.0	1
196.88525390625	0.2	COHERENT	1	0.448238110848251	0	0	0	RIGHT	490.0	1
198.0654296875	0.2	COHERENT	1	0.507239106326779	0	0	0	RIGHT	494.0	1
199.17529296875	0.2	COHERENT	1	0.455949903681358	0	0	0	RIGHT	498.0	1
200.455078125	0.2	COHERENT	1	0.435681130391458	0	0	0	RIGHT	502.0	1
201.68505859375	0.2	COHERENT	1	0.458687319988712	0	0	180	LEFT	506.0	1
n/a	0.2	RANDOM	0	0.579567084357222	1	0	0	NONE	n/a	1
204.2548828125	0.2	COHERENT	1	0.633296085878101	0	0	0	RIGHT	510.0	1
205.69482421875	0.2	COHERENT	1	0.509279264758334	0	0	180	LEFT	514.0	1
206.87451171875	0.2	RANDOM	0	0.442931404916635	0	0	0	NONE	518.0	1
208.16455078125	0.2	RANDOM	0	0.680394195193003	0	0	0	NONE	522.0	1
209.5947265625	0.2	COHERENT	1	0.330477594477998	0	0	0	RIGHT	526.0	1
210.5244140625	0.2	RANDOM	0	0.59648177561121	0	0	0	NONE	531.0	1
211.9345703125	0.2	COHERENT	1	0.609489709861919	0	0	0	RIGHT	535.0	1
213.333984375	0.2	RANDOM	0	0.649272648354781	0	0	0	NONE	539.0	1
214.6640625	0.2	RANDOM	0	n/a	0	1	0	NONE	543.0	0
215.8642578125	0.2	RANDOM	0	0.458904345274277	0	0	0	NONE	547.0	1
217.2041015625	0.2	COHERENT	1	0.405028346098334	0	0	180	LEFT	551.0	1
218.50390625	0.2	RANDOM	0	n/a	0	1	0	NONE	555.0	0
219.90380859375	0.2	RANDOM	0	0.768378178182502	0	0	0	NONE	559.0	1
221.423828125	0.2	RANDOM	0	0.779134060050637	0	0	0	NONE	562.0	1
223.0234375	0.2	RANDOM	0	0.713892455670248	0	0	0	NONE	565.0	1
224.453125	0.2	COHERENT	1	0.634870802039586	0	0	180	LEFT	569.0	1
225.7431640625	0.2	COHERENT	1	0.44877146784529	0	0	0	RIGHT	573.0	1
311.0068359375	0.2	RANDOM	0	0.749636731666214	0	0	0	NONE	575.0	1
312.65673828125	0.2	RANDOM	0	0.519612566096839	0	0	0	NONE	578.0	1
314.07666015625	0.2	COHERENT	1	0.519780390935011	0	0	180	LEFT	582.0	1
315.37646484375	0.2	COHERENT	1	0.54405915161442	0	0	180	LEFT	586.0	1
316.79638671875	0.2	COHERENT	1	0.5649029362703	0	0	0	RIGHT	590.0	1
318.1162109375	0.2	COHERENT	1	n/a	0	1	0	RIGHT	594.0	0
n/a	0.2	RANDOM	0	0.824473932516412	1	0	0	NONE	n/a	1
n/a	0.2	RANDOM	0	0.548293106685378	1	0	0	NONE	n/a	1
322.31591796875	0.2	RANDOM	0	n/a	0	1	0	NONE	598.0	0
323.9658203125	0.2	COHERENT	1	0.520100344765524	0	0	180	LEFT	601.0	1
325.36572265625	0.2	RANDOM	0	0.663757803402405	0	0	0	NONE	605.0	1
326.83544921875	0.2	RANDOM	0	0.609632783555753	0	0	0	NONE	609.0	1
328.33544921875	0.2	RANDOM	0	0.799435734254985	0	0	0	NONE	613.0	1
329.97509765625	0.2	COHERENT	1	n/a	0	1	0	RIGHT	616.0	0
331.625	0.2	COHERENT	1	0.498118309267738	0	0	0	RIGHT	618.0	1
332.955078125	0.2	COHERENT	1	0.672870752538074	0	0	0	RIGHT	622.0	1
334.47509765625	0.2	RANDOM	0	0.509666227786511	0	0	0	NONE	625.0	1
335.85498046875	0.2	RANDOM	0	0.684544539685703	0	0	0	NONE	629.0	1
337.27490234375	0.2	RANDOM	0	n/a	0	1	0	NONE	633.0	0
338.7646484375	0.2	COHERENT	1	0.454144881131469	0	0	180	LEFT	637.0	1
n/a	0.2	RANDOM	0	0.445165044862733	1	0	0	NONE	n/a	1
341.3642578125	0.2	COHERENT	1	0.68383701914172	0	0	180	LEFT	641.0	1
342.9443359375	0.2	COHERENT	1	0.600755272144852	0	0	0	RIGHT	644.0	1
344.26416015625	0.2	RANDOM	0	0.463413883218891	0	0	0	NONE	648.0	1
345.63427734375	0.2	COHERENT	1	0.54932963635747	0	0	180	LEFT	652.0	1
347.01416015625	0.2	RANDOM	0	0.494092022343466	0	0	0	NONE	656.0	1
348.18408203125	0.2	RANDOM	0	0.635115898747245	0	0	0	NONE	660.0	1
349.7236328125	0.2	COHERENT	1	0.576711647345292	0	0	180	LEFT	663.0	1
351.20361328125	0.2	RANDOM	0	0.719843295065402	0	0	0	NONE	667.0	1
352.54345703125	0.2	RANDOM	0	0.773050409631651	0	0	0	NONE	671.0	1
354.0732421875	0.2	RANDOM	0	0.560547036533535	0	0	0	NONE	674.0	1
355.453125	0.2	RANDOM	0	0.683839132043431	0	0	0	NONE	678.0	1
357.01318359375	0.2	COHERENT	1	0.524741184517552	0	0	180	LEFT	681.0	1
358.39306640625	0.2	COHERENT	1	0.479675083867733	0	0	180	LEFT	685.0	1
359.462890625	0.2	RANDOM	0	0.498507385198536	0	0	0	NONE	689.0	1
360.79296875	0.2	COHERENT	1	0.424302545926366	0	0	0	RIGHT	693.0	1
361.91259765625	0.2	RANDOM	0	0.728757631351073	0	0	0	NONE	697.0	1
363.392578125	0.2	COHERENT	1	0.739036600906729	0	0	0	RIGHT	701.0	1
364.83251953125	0.2	COHERENT	1	0.647847948280287	0	0	0	RIGHT	705.0	1
366.33251953125	0.2	COHERENT	1	0.519905957721676	0	0	180	LEFT	709.0	1
367.732421875	0.2	COHERENT	1	0.524388631617512	0	0	180	LEFT	713.0	1
369.05224609375	0.2	COHERENT	1	0.559202324917351	0	0	180	LEFT	717.0	1
370.47216796875	0.2	RANDOM	0	0.520969351440726	0	0	0	NONE	721.0	1
371.8818359375	0.2	COHERENT	1	0.528734268685184	0	0	180	LEFT	725.0	1
373.2216796875	0.2	COHERENT	1	0.439844454143895	0	0	180	LEFT	729.0	1
374.37158203125	0.2	COHERENT	1	0.475508439839359	0	0	0	RIGHT	733.0	1
375.751953125	0.2	RANDOM	0	0.468375582330737	0	0	0	NONE	737.0	1
377.00146484375	0.2	RANDOM	0	0.424067711888711	0	0	0	NONE	741.0	1
378.2216796875	0.2	COHERENT	1	n/a	0	1	180	LEFT	745.0	0
379.46142578125	0.2	COHERENT	1	n/a	0	1	180	LEFT	749.0	0
380.59130859375	0.2	COHERENT	1	0.454854816422085	0	0	0	RIGHT	753.0	1
381.7314453125	0.2	RANDOM	0	0.553544877147033	0	0	0	NONE	757.0	1
383.13134765625	0.2	COHERENT	1	n/a	0	1	0	RIGHT	761.0	0
384.23095703125	0.2	RANDOM	0	n/a	0	1	0	NONE	765.0	0
385.2109375	0.2	COHERENT	1	0.632862638991355	0	0	0	RIGHT	770.0	1
386.4609375	0.2	COHERENT	1	0.944571621061186	0	0	0	RIGHT	774.0	1
388.16064453125	0.2	RANDOM	0	0.697758934710691	0	0	0	NONE	777.0	1
389.57080078125	0.2	COHERENT	1	0.738613114846885	0	0	180	LEFT	781.0	1
390.9306640625	0.2	COHERENT	1	0.82341416091549	0	0	0	RIGHT	785.0	1
392.650390625	0.2	COHERENT	1	0.529096782411216	0	0	180	LEFT	788.0	1
394.05029296875	0.2	COHERENT	1	0.555339033341625	0	0	0	RIGHT	792.0	1
395.39013671875	0.2	COHERENT	1	0.483860744019694	0	0	180	LEFT	796.0	1
396.7001953125	0.2	COHERENT	1	0.514734477560523	0	0	0	RIGHT	800.0	1
397.89013671875	0.2	RANDOM	0	0.453460602514497	0	0	0	NONE	804.0	1
399.23974609375	0.2	COHERENT	1	0.649451943236272	0	0	0	RIGHT	808.0	1
400.5400390625	0.2	COHERENT	1	0.498144569629403	0	0	180	LEFT	812.0	1
401.83984375	0.2	COHERENT	1	0.500827352309898	0	0	180	LEFT	816.0	1
403.0595703125	0.2	RANDOM	0	0.353780495976935	0	0	0	NONE	820.0	1
404.279296875	0.2	COHERENT	1	0.499621488582306	0	0	0	RIGHT	824.0	1
405.49951171875	0.2	COHERENT	1	0.504585904282976	0	0	180	LEFT	828.0	1
406.74951171875	0.2	COHERENT	1	0.52935848049674	0	0	180	LEFT	832.0	1
407.97900390625	0.2	COHERENT	1	0.568325838566125	0	0	180	LEFT	836.0	1
409.279296875	0.2	COHERENT	1	0.475081029816465	0	0	180	LEFT	840.0	1
410.37890625	0.2	RANDOM	0	0.532750594781646	0	0	0	NONE	844.0	1
411.52880859375	0.2	RANDOM	0	0.67371712097156	0	0	0	NONE	848.0	1
413.11865234375	0.2	COHERENT	1	n/a	0	1	0	RIGHT	851.0	0
414.6884765625	0.2	RANDOM	0	0.618227467854922	0	0	0	NONE	854.0	1
415.91845703125	0.2	RANDOM	0	0.598061924951253	0	0	0	NONE	858.0	1
417.3583984375	0.2	RANDOM	0	0.559960253282952	0	0	0	NONE	862.0	1
418.75830078125	0.2	RANDOM	0	0.902784141640041	0	0	0	NONE	866.0	1
420.25830078125	0.2	RANDOM	0	0.658666613542664	0	0	0	NONE	870.0	1
421.63818359375	0.2	RANDOM	0	0.564408818892844	0	0	0	NONE	874.0	1
422.85791015625	0.2	RANDOM	0	n/a	0	1	0	NONE	878.0	0
424.89794921875	0.2	RANDOM	0	0.979973606828025	0	0	0	NONE	879.0	1
426.52783203125	0.2	RANDOM	0	0.657771044660876	0	0	0	NONE	882.0	1
428.0478515625	0.2	RANDOM	0	0.669894578231833	0	0	0	NONE	885.0	1
429.41748046875	0.2	RANDOM	0	0.898259209689968	0	0	0	NONE	889.0	1
431.11767578125	0.2	RANDOM	0	0.659033051230836	0	0	0	NONE	892.0	1
432.3671875	0.2	COHERENT	1	0.578069941906506	0	0	0	RIGHT	896.0	1
433.697265625	0.2	COHERENT	1	0.450913951133771	0	0	0	RIGHT	900.0	1
435.01708984375	0.2	RANDOM	0	0.763679384529496	0	0	0	NONE	904.0	1
436.51708984375	0.2	COHERENT	1	0.53453358277693	0	0	0	RIGHT	908.0	1
437.80712890625	0.2	RANDOM	0	0.470517160089912	0	0	0	NONE	912.0	1
438.86669921875	0.2	RANDOM	0	0.567148649945921	0	0	0	NONE	916.0	1
440.20654296875	0.2	RANDOM	0	0.404987899104526	0	0	0	NONE	920.0	1
441.2265625	0.2	RANDOM	0	0.4187700612556	0	0	0	NONE	924.0	1
442.53662109375	0.2	COHERENT	1	n/a	0	1	180	LEFT	928.0	0
443.806640625	0.2	RANDOM	0	0.59274827662648	0	0	0	NONE	932.0	1
445.12646484375	0.2	RANDOM	0	0.675348583660707	0	0	0	NONE	936.0	1
446.576171875	0.2	COHERENT	1	0.503029902402886	0	0	0	RIGHT	940.0	1
447.81640625	0.2	COHERENT	1	0.424041149684854	0	0	180	LEFT	944.0	1
449.14599609375	0.2	COHERENT	1	0.440972140472695	0	0	180	LEFT	948.0	1
450.17578125	0.2	COHERENT	1	0.466783962948284	0	0	0	RIGHT	952.0	1
451.345703125	0.2	RANDOM	0	0.548621210283272	0	0	0	NONE	956.0	1
452.595703125	0.2	COHERENT	1	n/a	0	1	0	RIGHT	960.0	0
453.8359375	0.2	COHERENT	1	0.449273734990129	0	0	0	RIGHT	964.0	1
455.10546875	0.2	RANDOM	0	0.534520905361205	0	0	0	NONE	968.0	1
456.53564453125	0.2	RANDOM	0	0.818933901764467	0	0	0	NONE	972.0	1
458.03515625	0.2	COHERENT	1	0.392717669722515	0	0	180	LEFT	976.0	1
459.03515625	0.2	COHERENT	1	0.488626245027262	0	0	0	RIGHT	980.0	1
460.1650390625	0.2	RANDOM	0	0.458374308552266	0	0	0	NONE	984.0	1
461.35498046875	0.2	RANDOM	0	0.404431300177748	0	0	0	NONE	988.0	1
462.43505859375	0.2	COHERENT	1	0.433095541231523	0	0	0	RIGHT	992.0	1
463.7451171875	0.2	RANDOM	0	0.64498949283643	0	0	0	NONE	996.0	1
465.0048828125	0.2	RANDOM	0	0.593776354687179	0	0	0	NONE	1000.0	1
466.3544921875	0.2	RANDOM	0	0.438710127263221	0	0	0	NONE	1004.0	1
467.54443359375	0.2	COHERENT	1	0.509503836125987	0	0	180	LEFT	1008.0	1
468.67431640625	0.2	COHERENT	1	0.494025918675106	0	0	180	LEFT	1012.0	1
470.04443359375	0.2	RANDOM	0	0.374950875013383	0	0	0	NONE	1016.0	1
471.244140625	0.2	COHERENT	1	0.343140521910755	0	0	0	RIGHT	1020.0	1
472.39404296875	0.2	RANDOM	0	0.389902377860381	0	0	0	NONE	1024.0	1
473.6640625	0.2	RANDOM	0	0.385072886086164	0	0	0	NONE	1028.0	1
474.8642578125	0.2	RANDOM	0	0.37242806924769	0	0	0	NONE	1032.0	1
475.86376953125	0.2	COHERENT	1	0.413604617960118	0	0	180	LEFT	1037.0	1
477.03369140625	0.2	RANDOM	0	0.499422573890115	0	0	0	NONE	1041.0	1
478.28369140625	0.2	RANDOM	0	0.360073625602126	0	0	0	NONE	1045.0	1
479.353515625	0.2	COHERENT	1	n/a	0	1	0	RIGHT	1049.0	0
480.65380859375	0.2	COHERENT	1	0.389808202770837	0	0	180	LEFT	1053.0	1
481.853515625	0.2	COHERENT	1	n/a	0	1	180	LEFT	1057.0	0
n/a	0.2	RANDOM	0	0.492471124167423	1	0	0	NONE	n/a	1
484.37353515625	0.2	COHERENT	1	0.439295703141397	0	0	0	RIGHT	1061.0	1
n/a	0.2	COHERENT	1	n/a	1	1	0	RIGHT	n/a	0
486.67333984375	0.2	RANDOM	0	0.548193196574175	0	0	0	NONE	1065.0	1
487.94287109375	0.2	COHERENT	1	0.534772642618918	0	0	0	RIGHT	1069.0	1
489.26318359375	0.2	COHERENT	1	0.605085817050167	0	0	180	LEFT	1073.0	1
490.74267578125	0.2	RANDOM	0	0.40366039255332	0	0	0	NONE	1077.0	1
492.04296875	0.2	RANDOM	0	0.4392670280331	0	0	0	NONE	1081.0	1
493.36279296875	0.2	RANDOM	0	n/a	0	1	0	NONE	1085.0	0
494.53271484375	0.2	RANDOM	0	0.519005861192454	0	0	0	NONE	1089.0	1
495.70263671875	0.2	COHERENT	1	0.41893366029035	0	0	180	LEFT	1093.0	1
496.982421875	0.2	COHERENT	1	0.429841972992108	0	0	180	LEFT	1097.0	1
498.18212890625	0.2	RANDOM	0	0.444606333033335	0	0	0	NONE	1101.0	1
499.501953125	0.2	RANDOM	0	0.544158156196318	0	0	0	NONE	1105.0	1
500.822265625	0.2	COHERENT	1	0.384298054499595	0	0	0	RIGHT	1109.0	1
502.08203125	0.2	COHERENT	1	n/a	0	1	0	RIGHT	1113.0	0
n/a	0.2	COHERENT	1	0.519966326368376	1	0	0	RIGHT	n/a	1
504.3916015625	0.2	RANDOM	0	0.437863155143532	0	0	0	NONE	1117.0	1
n/a	0.2	RANDOM	0	0.624689931535613	1	0	0	NONE	n/a	1
507.021484375	0.2	COHERENT	1	0.428419385822053	0	0	180	LEFT	1121.0	1
508.12158203125	0.2	RANDOM	0	0.544032287567461	0	0	0	NONE	1125.0	1
n/a	0.2	COHERENT	1	0.521605938826724	1	0	180	LEFT	n/a	1
n/a	0.2	RANDOM	0	0.486475913815411	1	0	0	NONE	n/a	1
523.97021484375	0.2	COHERENT	1	0.398371495373794	0	0	0	RIGHT	1129.0	1
525.17041015625	0.2	RANDOM	0	0.440043368836086	0	0	0	NONE	1133.0	1
526.30029296875	0.2	COHERENT	1	0.338961502310667	0	0	0	RIGHT	1137.0	1
527.47021484375	0.2	COHERENT	1	n/a	0	1	0	RIGHT	1141.0	0
528.64013671875	0.2	COHERENT	1	0.354676970387118	0	0	180	LEFT	1145.0	1
n/a	0.2	COHERENT	1	n/a	1	1	0	RIGHT	n/a	0
n/a	0.2	COHERENT	1	0.384278736531996	1	0	0	RIGHT	n/a	1
532.07958984375	0.2	COHERENT	1	0.344620157453392	0	0	0	RIGHT	1149.0	1
533.1396484375	0.2	RANDOM	0	0.404058825624816	0	0	0	NONE	1153.0	1
534.29931640625	0.2	COHERENT	1	0.410964395175142	0	0	0	RIGHT	1157.0	1
535.349609375	0.2	RANDOM	0	0.673113736342202	0	0	0	NONE	1161.0	1
536.859375	0.2	RANDOM	0	0.538709885788194	0	0	0	NONE	1164.0	1
538.19921875	0.2	COHERENT	1	0.469270849368513	0	0	180	LEFT	1168.0	1
539.3193359375	0.2	COHERENT	1	0.748367782702189	0	0	180	LEFT	1172.0	1
540.6689453125	0.2	RANDOM	0	0.428172478054876	0	0	0	NONE	1176.0	1
541.89892578125	0.2	COHERENT	1	0.489815809221	0	0	0	RIGHT	1180.0	1
543.03857421875	0.2	COHERENT	1	0.45885816325972	0	0	0	RIGHT	1184.0	1
544.21875	0.2	COHERENT	1	0.414690649922704	0	0	0	RIGHT	1188.0	1
545.23876953125	0.2	COHERENT	1	0.368556929747683	0	0	0	RIGHT	1192.0	1
546.23876953125	0.2	RANDOM	0	0.453451245374708	0	0	0	NONE	1196.0	1
547.53857421875	0.2	RANDOM	0	0.419374049571161	0	0	0	NONE	1200.0	1
548.73828125	0.2	COHERENT	1	n/a	0	1	180	LEFT	1204.0	0
n/a	0.2	RANDOM	0	n/a	1	1	0	NONE	n/a	0
n/a	0.2	RANDOM	0	0.690510169400113	1	0	0	NONE	n/a	1
552.43798828125	0.2	RANDOM	0	n/a	0	1	0	NONE	1208.0	0
554.2578125	0.2	RANDOM	0	0.612408232110283	0	0	0	NONE	1209.0	1
555.5576171875	0.2	COHERENT	1	0.573167102226762	0	0	180	LEFT	1213.0	1
557.02783203125	0.2	COHERENT	1	0.470024551928873	0	0	180	LEFT	1217.0	1
558.2978515625	0.2	RANDOM	0	0.399941683886937	0	0	0	NONE	1221.0	1
559.52734375	0.2	RANDOM	0	0.534605723310051	0	0	0	NONE	1225.0	1
560.87744140625	0.2	RANDOM	0	0.514375887796632	0	0	0	NONE	1229.0	1
562.24755859375	0.2	COHERENT	1	0.419397895187103	0	0	180	LEFT	1233.0	1
563.34716796875	0.2	RANDOM	0	0.473147422047077	0	0	0	NONE	1237.0	1
564.697265625	0.2	COHERENT	1	0.534980310765604	0	0	180	LEFT	1241.0	1
565.88720703125	0.2	COHERENT	1	0.447681511921473	0	0	180	LEFT	1245.0	1
567.10693359375	0.2	COHERENT	1	0.524791592338261	0	0	180	LEFT	1249.0	1
568.35693359375	0.2	RANDOM	0	0.424566960601624	0	0	0	NONE	1253.0	1
569.6669921875	0.2	RANDOM	0	n/a	0	1	0	NONE	1257.0	0
n/a	0.2	RANDOM	0	0.819630857796255	1	0	0	NONE	n/a	1
572.556640625	0.2	RANDOM	0	0.487853828187326	0	0	0	NONE	1261.0	1
573.896484375	0.2	RANDOM	0	0.439682062482461	0	0	0	NONE	1265.0	1
575.04638671875	0.2	COHERENT	1	0.408754299002794	0	0	0	RIGHT	1269.0	1
576.09619140625	0.2	COHERENT	1	0.459886241320419	0	0	180	LEFT	1273.0	1
577.17626953125	0.2	RANDOM	0	0.392487665176304	0	0	0	NONE	1277.0	1
578.35595703125	0.2	RANDOM	0	n/a	0	1	0	NONE	1281.0	0
579.59619140625	0.2	RANDOM	0	0.544037418902008	0	0	0	NONE	1285.0	1
580.916015625	0.2	RANDOM	0	0.504792063213245	0	0	0	NONE	1289.0	1
582.265625	0.2	RANDOM	0	0.399564077998548	0	0	0	NONE	1293.0	1
583.3955078125	0.2	COHERENT	1	0.534546863878859	0	0	180	LEFT	1297.0	1
584.595703125	0.2	RANDOM	0	0.495281284692282	0	0	0	NONE	1301.0	1
585.83544921875	0.2	COHERENT	1	0.60212805518222	0	0	0	RIGHT	1305.0	1
587.2353515625	0.2	COHERENT	1	0.809063024264105	0	0	0	RIGHT	1309.0	1
588.68505859375	0.2	RANDOM	0	0.437816369441862	0	0	0	NONE	1313.0	1
589.92529296875	0.2	RANDOM	0	n/a	0	1	0	NONE	1317.0	0
590.93505859375	0.2	COHERENT	1	n/a	0	1	0	RIGHT	1321.0	0
592.0849609375	0.2	RANDOM	0	0.677351917218402	0	0	0	NONE	1325.0	1
593.625	0.2	RANDOM	0	0.649070111542642	0	0	0	NONE	1328.0	1
594.99462890625	0.2	RANDOM	0	0.504179321445008	0	0	0	NONE	1332.0	1
596.224609375	0.2	RANDOM	0	0.435561298625544	0	0	0	NONE	1336.0	1
597.50439453125	0.2	RANDOM	0	0.517881796980873	0	0	0	NONE	1340.0	1
598.71435546875	0.2	RANDOM	0	0.47308373312444	0	0	0	NONE	1344.0	1
600.07421875	0.2	RANDOM	0	0.438806717098487	0	0	0	NONE	1348.0	1
601.26416015625	0.2	COHERENT	1	0.448255014069218	0	0	0	RIGHT	1352.0	1
602.314453125	0.2	COHERENT	1	0.398101043834686	0	0	180	LEFT	1356.0	1
603.3642578125	0.2	RANDOM	0	0.44804493117681	0	0	0	NONE	1360.0	1
604.56396484375	0.2	COHERENT	1	n/a	0	1	0	RIGHT	1364.0	0
605.85400390625	0.2	COHERENT	1	0.5348393499753	0	0	0	RIGHT	1368.0	1
607.06396484375	0.2	RANDOM	0	0.382510538855968	0	0	0	NONE	1372.0	1
608.20361328125	0.2	COHERENT	1	0.371071887588187	0	0	180	LEFT	1376.0	1
609.20361328125	0.2	RANDOM	0	0.491386299577243	0	0	0	NONE	1380.0	1
610.37353515625	0.2	COHERENT	1	0.443169257387126	0	0	180	LEFT	1384.0	1
611.58349609375	0.2	RANDOM	0	0.28475347557378	0	0	0	NONE	1388.0	1
612.693359375	0.2	COHERENT	1	n/a	0	1	180	LEFT	1392.0	0
613.703125	0.2	RANDOM	0	0.508564499975364	0	0	0	NONE	1396.0	1
615.04345703125	0.2	COHERENT	1	0.454971327911153	0	0	180	LEFT	1400.0	1
616.22314453125	0.2	COHERENT	1	0.444280644181163	0	0	0	RIGHT	1404.0	1
617.453125	0.2	RANDOM	0	0.429095816512927	0	0	0	NONE	1408.0	1
618.64306640625	0.2	COHERENT	1	0.389991119771366	0	0	180	LEFT	1412.0	1
n/a	0.2	RANDOM	0	0.549862389669215	1	0	0	NONE	n/a	1
621.1826171875	0.2	RANDOM	0	0.439436362089509	0	0	0	NONE	1416.0	1
622.28271484375	0.2	COHERENT	1	0.608695560307751	0	0	0	RIGHT	1420.0	1
623.66259765625	0.2	COHERENT	1	0.514298615928055	0	0	0	RIGHT	1424.0	1
624.90234375	0.2	RANDOM	0	0.494156314953216	0	0	0	NONE	1428.0	1
626.25244140625	0.2	RANDOM	0	0.520624344623684	0	0	0	NONE	1432.0	1
627.40234375	0.2	COHERENT	1	0.392967595921618	0	0	180	LEFT	1436.0	1
628.56201171875	0.2	RANDOM	0	0.434719457841311	0	0	0	NONE	1440.0	1
629.60205078125	0.2	COHERENT	1	0.388714926571083	0	0	0	RIGHT	1444.0	1
630.80224609375	0.2	COHERENT	1	0.354262237780858	0	0	0	RIGHT	1448.0	1
631.97216796875	0.2	RANDOM	0	0.37100638760603	0	0	0	NONE	1452.0	1
633.07177734375	0.2	COHERENT	1	0.382105163390406	0	0	180	LEFT	1456.0	1
634.07177734375	0.2	COHERENT	1	0.50300122729459	0	0	180	LEFT	1460.0	1
635.32177734375	0.2	COHERENT	1	0.439800083187947	0	0	0	RIGHT	1464.0	1
636.6513671875	0.2	RANDOM	0	0.439619279089129	0	0	0	NONE	1468.0	1
637.8212890625	0.2	COHERENT	1	0.434691688264138	0	0	180	LEFT	1472.0	1
639.0615234375	0.2	RANDOM	0	0.469302241065634	0	0	0	NONE	1476.0	1
640.44140625	0.2	COHERENT	1	0.349071741496118	0	0	0	RIGHT	1480.0	1
641.62109375	0.2	COHERENT	1	n/a	0	1	180	LEFT	1484.0	0
642.78125	0.2	RANDOM	0	0.544803497034991	0	0	0	NONE	1486.0	1
644.23095703125	0.2	COHERENT	1	0.389984177377301	0	0	180	LEFT	1490.0	1
645.5107421875	0.2	COHERENT	1	0.389385924084308	0	0	0	RIGHT	1494.0	1
646.630859375	0.2	RANDOM	0	0.535437301424281	0	0	0	NONE	1498.0	1
647.98095703125	0.2	COHERENT	1	0.393365727150012	0	0	0	RIGHT	1502.0	1
649.1806640625	0.2	COHERENT	1	0.30893142061359	0	0	180	LEFT	1506.0	1
650.1005859375	0.2	RANDOM	0	0.417932144433507	0	0	0	NONE	1509.0	1
651.13037109375	0.2	RANDOM	0	0.603770686071584	0	0	0	NONE	1513.0	1
652.6201171875	0.2	COHERENT	1	0.424553679499695	0	0	180	LEFT	1517.0	1
653.72021484375	0.2	COHERENT	1	0.413368878392248	0	0	180	LEFT	1521.0	1
654.9501953125	0.2	RANDOM	0	n/a	0	1	0	NONE	1525.0	0
656.0	0.2	COHERENT	1	0.464344164072827	0	0	180	LEFT	1529.0	1
657.2001953125	0.2	RANDOM	0	0.494180764255361	0	0	0	NONE	1533.0	1
658.48974609375	0.2	RANDOM	0	n/a	0	1	0	NONE	1537.0	0
659.52001953125	0.2	RANDOM	0	0.377797256728627	0	0	0	NONE	1541.0	1
660.60986328125	0.2	RANDOM	0	0.398605122038134	0	0	0	NONE	1545.0	1
661.60986328125	0.2	COHERENT	1	n/a	0	1	180	LEFT	1549.0	0
662.7294921875	0.2	RANDOM	0	0.493191623971143	0	0	0	NONE	1553.0	1
663.939453125	0.2	COHERENT	1	0.414131636250204	0	0	0	RIGHT	1557.0	1
664.9892578125	0.2	RANDOM	0	0.462937272750423	0	0	0	NONE	1561.0	1
666.1494140625	0.2	COHERENT	1	0.548976479771227	0	0	0	RIGHT	1565.0	1
667.29931640625	0.2	COHERENT	1	0.398736122002447	0	0	0	RIGHT	1569.0	1
668.37890625	0.2	COHERENT	1	0.433489446655585	0	0	0	RIGHT	1573.0	1
669.47900390625	0.2	RANDOM	0	0.573226867187259	0	0	0	NONE	1577.0	1
670.77880859375	0.2	COHERENT	1	0.434445082340062	0	0	0	RIGHT	1581.0	1
671.9990234375	0.2	COHERENT	1	0.574559505073012	0	0	0	RIGHT	1585.0	1
673.4189453125	0.2	RANDOM	0	0.508831027552333	0	0	0	NONE	1589.0	1
674.5986328125	0.2	COHERENT	1	0.853616595099083	0	0	180	LEFT	1593.0	1
676.33837890625	0.2	COHERENT	1	0.584665216611938	0	0	0	RIGHT	1596.0	1
677.6884765625	0.2	COHERENT	1	0.544479317399237	0	0	180	LEFT	1600.0	1
679.068359375	0.2	RANDOM	0	0.424104234921288	0	0	0	NONE	1604.0	1
680.18798828125	0.2	COHERENT	1	0.66812547502559	0	0	180	LEFT	1608.0	1
681.4580078125	0.2	COHERENT	1	0.59794450793197	0	0	0	RIGHT	1612.0	1
682.88818359375	0.2	COHERENT	1	0.556403030747788	0	0	180	LEFT	1616.0	1
684.2080078125	0.2	RANDOM	0	0.372451613019621	0	0	0	NONE	1620.0	1
685.19775390625	0.2	COHERENT	1	0.458411133427035	0	0	180	LEFT	1625.0	1
686.34765625	0.2	COHERENT	1	0.388187908280997	0	0	180	LEFT	1629.0	1
687.34765625	0.2	RANDOM	0	0.448050968041571	0	0	0	NONE	1633.0	1
688.49755859375	0.2	COHERENT	1	0.468021218372087	0	0	0	RIGHT	1637.0	1
689.86767578125	0.2	RANDOM	0	0.470520480364939	0	0	0	NONE	1641.0	1
690.92724609375	0.2	RANDOM	0	0.557684355284437	0	0	0	NONE	1645.0	1
692.16748046875	0.2	RANDOM	0	0.473539818254721	0	0	0	NONE	1649.0	1
693.3671875	0.2	COHERENT	1	0.804429126906143	0	0	180	LEFT	1653.0	1
694.81689453125	0.2	RANDOM	0	0.429716406206353	0	0	0	NONE	1657.0	1
695.966796875	0.2	RANDOM	0	0.793084047041702	0	0	0	NONE	1661.0	1
697.40673828125	0.2	RANDOM	0	0.452854803140326	0	0	0	NONE	1665.0	1
698.70703125	0.2	COHERENT	1	0.299660909308841	0	0	0	RIGHT	1669.0	1
699.82666015625	0.2	RANDOM	0	0.424577525114728	0	0	0	NONE	1671.0	1
700.8564453125	0.2	RANDOM	0	0.448380882698075	0	0	0	NONE	1675.0	1
701.9267578125	0.2	RANDOM	0	0.473253670867052	0	0	0	NONE	1679.0	1
703.17626953125	0.2	COHERENT	1	0.273926962388032	0	0	180	LEFT	1683.0	1
738.93359375	0.2	RANDOM	0	0.559377695837611	0	0	0	NONE	1684.0	1
740.103515625	0.2	COHERENT	1	0.408292478851763	0	0	180	LEFT	1688.0	1
741.2333984375	0.2	RANDOM	0	0.444300867678066	0	0	0	NONE	1692.0	1
742.4736328125	0.2	RANDOM	0	0.420103604672477	0	0	0	NONE	1696.0	1
743.62353515625	0.2	COHERENT	1	0.424876349919032	0	0	180	LEFT	1700.0	1
744.92333984375	0.2	RANDOM	0	0.524727601571612	0	0	0	NONE	1704.0	1
746.09326171875	0.2	RANDOM	0	0.638453681250212	0	0	0	NONE	1708.0	1
747.40283203125	0.2	COHERENT	1	0.403348890333291	0	0	180	LEFT	1712.0	1
748.5927734375	0.2	COHERENT	1	n/a	0	1	0	RIGHT	1716.0	0
749.6728515625	0.2	RANDOM	0	0.449305428530351	0	0	0	NONE	1720.0	1
750.97265625	0.2	COHERENT	1	0.351235353811717	0	0	180	LEFT	1724.0	1
752.0126953125	0.2	COHERENT	1	0.430707961236294	0	0	180	LEFT	1728.0	1
753.33251953125	0.2	RANDOM	0	0.361598537629106	0	0	0	NONE	1732.0	1
754.29248046875	0.2	RANDOM	0	0.527456264424472	0	0	0	NONE	1737.0	1
755.55224609375	0.2	COHERENT	1	0.394168630156855	0	0	180	LEFT	1741.0	1
756.7021484375	0.2	COHERENT	1	0.469796358442181	0	0	0	RIGHT	1745.0	1
757.96240234375	0.2	COHERENT	1	0.48814661612596	0	0	0	RIGHT	1749.0	1
759.15234375	0.2	RANDOM	0	0.3877598945719	0	0	0	NONE	1753.0	1
760.15185546875	0.2	COHERENT	1	0.518766499506455	0	0	0	RIGHT	1758.0	1
761.52197265625	0.2	COHERENT	1	0.429490627465384	0	0	180	LEFT	1762.0	1
762.77197265625	0.2	RANDOM	0	0.366639017826856	0	0	0	NONE	1766.0	1
763.82177734375	0.2	RANDOM	0	0.551202271793045	0	0	0	NONE	1770.0	1
765.24169921875	0.2	COHERENT	1	0.565562765584218	0	0	180	LEFT	1774.0	1
766.50146484375	0.2	COHERENT	1	0.599227341685037	0	0	180	LEFT	1778.0	1
767.95166015625	0.2	RANDOM	0	0.526792511148415	0	0	0	NONE	1782.0	1
769.26123046875	0.2	COHERENT	1	0.374489054862352	0	0	180	LEFT	1786.0	1
770.31103515625	0.2	COHERENT	1	0.583485613246012	0	0	180	LEFT	1790.0	1
771.64111328125	0.2	COHERENT	1	n/a	0	1	0	RIGHT	1794.0	0
772.7412109375	0.2	COHERENT	1	0.50001750690717	0	0	180	LEFT	1796.0	1
774.11083984375	0.2	RANDOM	0	0.85388282083386	0	0	0	NONE	1800.0	1
775.73095703125	0.2	RANDOM	0	0.679786282915302	0	0	0	NONE	1803.0	1
777.05078125	0.2	COHERENT	1	0.538609673833889	0	0	0	RIGHT	1807.0	1
778.2607421875	0.2	RANDOM	0	0.65334300439099	0	0	0	NONE	1811.0	1
779.8203125	0.2	COHERENT	1	n/a	0	1	0	RIGHT	1814.0	0
780.97021484375	0.2	COHERENT	1	0.487983620779232	0	0	180	LEFT	1818.0	1
782.13037109375	0.2	COHERENT	1	0.513015480331887	0	0	0	RIGHT	1822.0	1
783.48046875	0.2	RANDOM	0	0.564708851069554	0	0	0	NONE	1826.0	1
784.8203125	0.2	COHERENT	1	0.474688331767538	0	0	180	LEFT	1830.0	1
n/a	0.2	RANDOM	0	0.586599729910631	1	0	0	NONE	n/a	1
n/a	0.2	RANDOM	0	0.526172826985203	1	0	0	NONE	n/a	1
788.7900390625	0.2	COHERENT	1	0.518130817650672	0	0	180	LEFT	1834.0	1
790.009765625	0.2	COHERENT	1	n/a	0	1	0	RIGHT	1838.0	0
791.11962890625	0.2	RANDOM	0	0.574755401334187	0	0	0	NONE	1842.0	1
792.32958984375	0.2	RANDOM	0	n/a	0	1	0	NONE	1846.0	0
793.779296875	0.2	COHERENT	1	0.494426766492325	0	0	180	LEFT	1850.0	1
794.87939453125	0.2	COHERENT	1	0.54822338089798	0	0	0	RIGHT	1854.0	1
796.12939453125	0.2	COHERENT	1	0.4582680597332	0	0	180	LEFT	1858.0	1
797.42919921875	0.2	COHERENT	1	n/a	0	1	180	LEFT	1862.0	0
798.85888671875	0.2	COHERENT	1	0.767829729024015	0	0	180	LEFT	1866.0	1
800.39892578125	0.2	COHERENT	1	n/a	0	1	180	LEFT	1869.0	0
801.72900390625	0.2	RANDOM	0	0.727389979649161	0	0	0	NONE	1873.0	1
803.3388671875	0.2	COHERENT	1	n/a	0	1	0	RIGHT	1876.0	0
804.86865234375	0.2	RANDOM	0	0.627923578122136	0	0	0	NONE	1879.0	1
806.23828125	0.2	COHERENT	1	0.508805974563984	0	0	0	RIGHT	1883.0	1
807.55859375	0.2	RANDOM	0	0.579636508301519	0	0	0	NONE	1887.0	1
808.908203125	0.2	RANDOM	0	0.544281006393248	0	0	0	NONE	1891.0	1
810.328125	0.2	RANDOM	0	0.62435428185745	0	0	0	NONE	1895.0	1
811.578125	0.2	COHERENT	1	0.873099670448028	0	0	0	RIGHT	1899.0	1
813.05810546875	0.2	RANDOM	0	0.589521270590922	0	0	0	NONE	1903.0	1
814.48779296875	0.2	RANDOM	0	0.457693350213049	0	0	0	NONE	1907.0	1
815.82763671875	0.2	RANDOM	0	0.644408746450608	0	0	0	NONE	1911.0	1
817.24755859375	0.2	RANDOM	0	0.484915082442058	0	0	0	NONE	1915.0	1
818.607421875	0.2	COHERENT	1	0.464137099612344	0	0	180	LEFT	1919.0	1
819.8974609375	0.2	COHERENT	1	0.564039966458949	0	0	0	RIGHT	1923.0	1
821.3271484375	0.2	RANDOM	0	0.546946885852776	0	0	0	NONE	1927.0	1
822.5771484375	0.2	COHERENT	1	0.515801493399522	0	0	0	RIGHT	1931.0	1
823.9970703125	0.2	COHERENT	1	0.409578331035846	0	0	180	LEFT	1935.0	1
825.01708984375	0.2	COHERENT	1	0.628532999615345	0	0	0	RIGHT	1939.0	1
826.26708984375	0.2	COHERENT	1	0.483340366280572	0	0	180	LEFT	1943.0	1
827.36669921875	0.2	COHERENT	1	0.502947801041955	0	0	0	RIGHT	1947.0	1
828.73681640625	0.2	COHERENT	1	0.57891027347614	0	0	180	LEFT	1951.0	1
830.056640625	0.2	COHERENT	1	0.558628520925595	0	0	0	RIGHT	1955.0	1
831.33642578125	0.2	RANDOM	0	0.654648778228875	0	0	0	NONE	1959.0	1
832.75634765625	0.2	COHERENT	1	0.62937152012455	0	0	0	RIGHT	1963.0	1
834.00634765625	0.2	COHERENT	1	0.573342473146113	0	0	180	LEFT	1967.0	1
835.30615234375	0.2	RANDOM	0	0.624187664391684	0	0	0	NONE	1971.0	1
836.7763671875	0.2	COHERENT	1	0.53976875186072	0	0	0	RIGHT	1975.0	1
837.94580078125	0.2	RANDOM	0	0.813542981571118	0	0	0	NONE	1979.0	1
839.42578125	0.2	RANDOM	0	0.563712466548168	0	0	0	NONE	1983.0	1
840.595703125	0.2	RANDOM	0	0.498525495792819	0	0	0	NONE	1987.0	1
841.845703125	0.2	COHERENT	1	0.439197905932815	0	0	180	LEFT	1991.0	1
843.0654296875	0.2	RANDOM	0	0.524078336770799	0	0	0	NONE	1995.0	1
n/a	0.2	COHERENT	1	0.393723411384599	1	0	0	RIGHT	n/a	1
845.46533203125	0.2	COHERENT	1	0.478874293762601	0	0	180	LEFT	1999.0	1
846.58544921875	0.2	RANDOM	0	0.378780963834288	0	0	0	NONE	2003.0	1
847.865234375	0.2	COHERENT	1	0.378450747333773	0	0	0	RIGHT	2007.0	1
848.9150390625	0.2	RANDOM	0	0.553355621437731	0	0	0	NONE	2011.0	1
850.26513671875	0.2	RANDOM	0	0.51911211001061	0	0	0	NONE	2015.0	1
851.5048828125	0.2	COHERENT	1	0.467882974169697	0	0	180	LEFT	2019.0	1
852.77490234375	0.2	RANDOM	0	0.549803228394012	0	0	0	NONE	2023.0	1
854.19482421875	0.2	RANDOM	0	0.465025122412953	0	0	0	NONE	2027.0	1
855.40478515625	0.2	COHERENT	1	n/a	0	1	0	RIGHT	2031.0	0
856.44482421875	0.2	RANDOM	0	0.562467966886288	0	0	0	NONE	2035.0	1
857.89453125	0.2	COHERENT	1	0.569165264604635	0	0	0	RIGHT	2039.0	1
859.21435546875	0.2	RANDOM	0	0.61890088011387	0	0	0	NONE	2043.0	1
860.54443359375	0.2	RANDOM	0	0.589481125441125	0	0	0	NONE	2047.0	1
861.97412109375	0.2	RANDOM	0	0.477624662765265	0	0	0	NONE	2051.0	1
863.1142578125	0.2	RANDOM	0	0.508459458529614	0	0	0	NONE	2055.0	1
864.26416015625	0.2	COHERENT	1	0.408337755336106	0	0	180	LEFT	2059.0	1
865.43408203125	0.2	COHERENT	1	0.968940632868907	0	0	180	LEFT	2063.0	1
n/a	0.2	RANDOM	0	n/a	1	1	0	NONE	n/a	0
n/a	0.2	RANDOM	0	0.73377426593288	1	0	0	NONE	n/a	1
n/a	0.2	RANDOM	0	0.469702485195739	1	0	0	NONE	n/a	1
871.2333984375	0.2	COHERENT	1	n/a	0	1	180	LEFT	2067.0	0
872.55322265625	0.2	RANDOM	0	0.415369193517108	0	0	0	NONE	2071.0	1
873.7734375	0.2	COHERENT	1	0.568921978956496	0	0	0	RIGHT	2075.0	1
875.203125	0.2	COHERENT	1	n/a	0	1	0	RIGHT	2079.0	0
876.47314453125	0.2	RANDOM	0	0.603599540957475	0	0	0	NONE	2083.0	1
877.81298828125	0.2	RANDOM	0	0.564758655204059	0	0	0	NONE	2087.0	1
879.27294921875	0.2	COHERENT	1	0.408867792059027	0	0	180	LEFT	2091.0	1
880.54296875	0.2	RANDOM	0	n/a	0	1	0	NONE	2095.0	0
882.5625	0.2	RANDOM	0	0.654083425848512	0	0	0	NONE	2096.0	1
884.09228515625	0.2	RANDOM	0	0.8150177876214	0	0	0	NONE	2099.0	1
885.7421875	0.2	COHERENT	1	0.498618463509047	0	0	0	RIGHT	2102.0	1
886.9521484375	0.2	RANDOM	0	0.508863022935657	0	0	0	NONE	2106.0	1
888.10205078125	0.2	COHERENT	1	0.512310072690525	0	0	180	LEFT	2110.0	1
889.501953125	0.2	RANDOM	0	0.419072206334931	0	0	0	NONE	2114.0	1
890.7021484375	0.2	COHERENT	1	0.524031551070038	0	0	0	RIGHT	2118.0	1
891.90185546875	0.2	RANDOM	0	0.52285738088267	0	0	0	NONE	2122.0	1
893.1015625	0.2	COHERENT	1	0.602745928285913	0	0	180	LEFT	2126.0	1
894.49169921875	0.2	RANDOM	0	0.544492296658973	0	0	0	NONE	2130.0	1
895.70166015625	0.2	COHERENT	1	0.51324971068334	0	0	0	RIGHT	2134.0	1
897.09130859375	0.2	COHERENT	1	0.554590462115812	0	0	0	RIGHT	2138.0	1
898.271484375	0.2	RANDOM	0	0.482848965491939	0	0	0	NONE	2142.0	1
899.47119140625	0.2	COHERENT	1	n/a	0	1	0	RIGHT	2146.0	0
900.8212890625	0.2	COHERENT	1	0.550965023009667	0	0	0	RIGHT	2150.0	1
901.98095703125	0.2	RANDOM	0	0.635568059914476	0	0	0	NONE	2154.0	1
903.2109375	0.2	RANDOM	0	0.498335636397314	0	0	0	NONE	2158.0	1
904.5107421875	0.2	RANDOM	0	0.549239687073168	0	0	0	NONE	2162.0	1
905.791015625	0.2	RANDOM	0	0.435092536080447	0	0	0	NONE	2166.0	1
906.90087890625	0.2	RANDOM	0	0.722834863377102	0	0	0	NONE	2170.0	1
908.36083984375	0.2	RANDOM	0	0.691719655246743	0	0	0	NONE	2174.0	1
909.83056640625	0.2	RANDOM	0	0.682372475760531	0	0	0	NONE	2178.0	1
911.150390625	0.2	COHERENT	1	0.463680410796769	0	0	180	LEFT	2182.0	1
912.47021484375	0.2	RANDOM	0	0.599041708094774	0	0	0	NONE	2186.0	1
913.6904296875	0.2	COHERENT	1	0.483071122114779	0	0	0	RIGHT	2190.0	1
915.02001953125	0.2	RANDOM	0	0.359752162556106	0	0	0	NONE	2194.0	1
916.0	0.2	COHERENT	1	0.563793964221986	0	0	0	RIGHT	2199.0	1
917.35009765625	0.2	RANDOM	0	0.584407442488555	0	0	0	NONE	2203.0	1
918.60986328125	0.2	COHERENT	1	0.933369916732772	0	0	180	LEFT	2207.0	1
920.26953125	0.2	COHERENT	1	0.707353927494296	0	0	0	RIGHT	2210.0	1
921.62939453125	0.2	COHERENT	1	n/a	0	1	0	RIGHT	2214.0	0
923.33935546875	0.2	RANDOM	0	0.61508165765008	0	0	0	NONE	2217.0	1
924.58935546875	0.2	COHERENT	1	0.532500366739441	0	0	180	LEFT	2221.0	1
925.94921875	0.2	COHERENT	1	0.424404870784201	0	0	0	RIGHT	2225.0	1
927.19921875	0.2	RANDOM	0	0.484694133194353	0	0	0	NONE	2229.0	1
928.4091796875	0.2	COHERENT	1	0.564927385573355	0	0	0	RIGHT	2233.0	1
929.55908203125	0.2	RANDOM	0	0.498898272188853	0	0	0	NONE	2237.0	1
930.798828125	0.2	RANDOM	0	0.635668573711882	0	0	0	NONE	2241.0	1
932.02880859375	0.2	RANDOM	0	0.607656615890846	0	0	0	NONE	2245.0	1
