onset	duration	trial_type	trial_type_id	response_time	bad_epoch	outliers	event_num	response_accuracy
22.91015625	0.2	FACES	1	0.591161433377692	0	0	1.0	1
24.27978515625	0.2	SCRAMBLED	0	0.51737208862869	0	0	9.0	1
25.4794921875	0.2	SCRAMBLED	0	0.700277214501057	0	0	17.0	1
27.02978515625	0.2	FACES	1	0.771026677669852	0	0	23.0	1
28.599609375	0.2	FACES	1	0.875804945308573	0	0	29.0	1
30.19921875	0.2	FACES	1	0.944953422289018	0	0	35.0	1
31.939453125	0.2	FACES	1	0.897305066952413	0	0	40.0	1
33.68896484375	0.2	FACES	1	0.870097658950272	0	0	45.0	1
35.2587890625	0.2	SCRAMBLED	0	0.82001673429022	0	0	51.0	1
36.73876953125	0.2	SCRAMBLED	0	1.01541522711705	0	0	59.0	1
38.458984375	0.2	SCRAMBLED	0	0.935051395158098	0	0	63.0	1
40.2587890625	0.2	SCRAMBLED	0	0.869295656630584	0	0	68.0	1
41.9482421875	0.2	SCRAMBLED	0	0.786147605855604	0	0	74.0	1
43.6484375	0.2	SCRAMBLED	0	0.876961313726042	0	0	79.0	1
45.3984375	0.2	FACES	1	0.895355751566967	0	0	84.0	1
47.17822265625	0.2	FACES	1	0.865489390448147	0	0	89.0	1
n/a	0.2	SCRAMBLED	0	1.01189661927492	1	0	n/a	1
n/a	0.2	FACES	1	0.908632708292771	1	0	n/a	1
52.267578125	0.2	FACES	1	0.83678452911272	0	0	94.0	1
53.83740234375	0.2	FACES	1	0.90456293137413	0	0	100.0	1
55.66748046875	0.2	FACES	1	0.72437169441946	0	0	105.0	1
57.25732421875	0.2	FACES	1	0.960116910627676	0	0	111.0	1
59.17724609375	0.2	SCRAMBLED	0	0.716838849149553	0	0	116.0	1
60.6572265625	0.2	FACES	1	0.882788432573307	0	0	124.0	1
62.44677734375	0.2	SCRAMBLED	0	0.687541465964841	0	0	129.0	1
63.9765625	0.2	SCRAMBLED	0	0.83132264278629	0	0	135.0	1
65.69677734375	0.2	FACES	1	0.758061225044457	0	0	140.0	1
67.31640625	0.2	SCRAMBLED	0	0.757820352687759	0	0	146.0	1
68.896484375	0.2	SCRAMBLED	0	0.814643892255845	0	0	152.0	1
70.66650390625	0.2	FACES	1	0.69237974040152	0	0	157.0	1
72.0361328125	0.2	FACES	1	0.920245291367792	0	0	165.0	1
73.85595703125	0.2	FACES	1	0.851026484489012	0	0	170.0	1
75.43603515625	0.2	FACES	1	n/a	0	1	176.0	0
77.36572265625	0.2	SCRAMBLED	0	0.901311758253541	0	0	178.0	1
78.95556640625	0.2	FACES	1	0.966309563839786	0	0	184.0	1
80.70556640625	0.2	FACES	1	n/a	0	1	189.0	0
82.6455078125	0.2	SCRAMBLED	0	0.878607878518324	0	0	191.0	1
84.35546875	0.2	SCRAMBLED	0	1.12935419042424	0	0	196.0	1
86.46533203125	0.2	SCRAMBLED	0	0.813244840411699	0	0	200.0	1
88.19482421875	0.2	SCRAMBLED	0	0.665264998831844	0	0	205.0	1
89.71484375	0.2	SCRAMBLED	0	0.868037566428484	0	0	211.0	1
91.49462890625	0.2	SCRAMBLED	0	0.775433011828227	0	0	216.0	1
93.16455078125	0.2	SCRAMBLED	0	0.741549998520895	0	0	222.0	1
94.814453125	0.2	FACES	1	0.84129228321035	0	0	228.0	1
96.58447265625	0.2	SCRAMBLED	0	0.672089715595575	0	0	233.0	1
n/a	0.2	SCRAMBLED	0	0.682980888982001	1	0	n/a	1
99.77392578125	0.2	FACES	1	0.684726458953264	0	0	239.0	1
101.173828125	0.2	SCRAMBLED	0	0.73762359800503	0	0	247.0	1
102.84375	0.2	SCRAMBLED	0	0.703321925602268	0	0	253.0	1
104.353515625	0.2	SCRAMBLED	0	0.676070448222163	0	0	259.0	1
105.99365234375	0.2	SCRAMBLED	0	0.667855131275246	0	0	265.0	1
107.62353515625	0.2	SCRAMBLED	0	0.59977578949065	0	0	271.0	1
109.01318359375	0.2	SCRAMBLED	0	0.621540931095296	0	0	279.0	1
110.5634765625	0.2	FACES	1	0.516323177052072	0	0	285.0	1
111.93310546875	0.2	FACES	1	0.714089040669933	0	0	293.0	1
113.40283203125	0.2	SCRAMBLED	0	0.670380970721453	0	0	301.0	1
114.7626953125	0.2	FACES	1	0.798778916001993	0	0	309.0	1
116.36279296875	0.2	SCRAMBLED	0	0.722300433630608	0	0	315.0	1
117.9228515625	0.2	SCRAMBLED	0	0.771345124206618	0	0	321.0	1
119.45263671875	0.2	FACES	1	0.722109063863627	0	0	327.0	1
121.1025390625	0.2	FACES	1	0.736996062129492	0	0	333.0	1
122.7724609375	0.2	FACES	1	0.656774701037648	0	0	339.0	1
124.27197265625	0.2	SCRAMBLED	0	0.67955706048815	0	0	346.0	1
125.72216796875	0.2	FACES	1	0.860331462095473	0	0	354.0	1
127.341796875	0.2	FACES	1	0.96059110921442	0	0	360.0	1
129.16162109375	0.2	FACES	1	0.813936669284431	0	0	365.0	1
130.8916015625	0.2	FACES	1	0.767750451409029	0	0	370.0	1
132.54150390625	0.2	FACES	1	0.818490001985992	0	0	376.0	1
134.05126953125	0.2	FACES	1	0.745319137760816	0	0	382.0	1
135.68115234375	0.2	SCRAMBLED	0	0.571078474282331	0	0	388.0	1
136.951171875	0.2	FACES	1	0.965836270788714	0	0	396.0	1
138.72119140625	0.2	SCRAMBLED	0	0.759747331539074	0	0	401.0	1
140.32080078125	0.2	SCRAMBLED	0	0.6545289738051	0	0	407.0	1
141.80078125	0.2	SCRAMBLED	0	0.651286554190847	0	0	415.0	1
143.220703125	0.2	FACES	1	0.762092063950149	0	0	423.0	1
144.6904296875	0.2	FACES	1	0.841866392510383	0	0	431.0	1
146.46044921875	0.2	FACES	1	0.847796440521961	0	0	436.0	1
148.21044921875	0.2	FACES	1	n/a	0	1	441.0	0
150.0400390625	0.2	SCRAMBLED	0	0.812992799787935	0	0	443.0	1
151.5400390625	0.2	SCRAMBLED	0	n/a	0	1	450.0	0
153.5	0.2	FACES	1	1.09241861804458	0	0	452.0	1
155.25	0.2	SCRAMBLED	0	1.03552293750818	0	0	456.0	1
156.99951171875	0.2	SCRAMBLED	0	n/a	0	1	460.0	0
159.07958984375	0.2	FACES	1	0.758039794045544	0	0	462.0	1
160.5693359375	0.2	SCRAMBLED	0	0.773187888285975	0	0	470.0	1
162.29931640625	0.2	FACES	1	0.550795090068277	0	0	475.0	1
163.51904296875	0.2	FACES	1	0.711494380549993	0	0	483.0	1
165.13916015625	0.2	SCRAMBLED	0	0.617316609507725	0	0	489.0	1
166.51904296875	0.2	SCRAMBLED	0	0.714813166964632	0	0	497.0	1
167.90869140625	0.2	SCRAMBLED	0	0.78786691530604	0	0	505.0	1
169.458984375	0.2	SCRAMBLED	0	0.917751749343552	0	0	511.0	1
171.07861328125	0.2	FACES	1	0.890581770127937	0	0	517.0	1
172.8984375	0.2	FACES	1	0.916282065754785	0	0	522.0	1
174.74853515625	0.2	FACES	1	0.908064635893425	0	0	527.0	1
176.46826171875	0.2	SCRAMBLED	0	0.787556316741757	0	0	532.0	1
178.1982421875	0.2	SCRAMBLED	0	0.883594962568168	0	0	537.0	1
179.8681640625	0.2	FACES	1	0.69848998991165	0	0	543.0	1
181.41796875	0.2	FACES	1	0.930107776795921	0	0	549.0	1
183.19775390625	0.2	SCRAMBLED	0	0.719009718807683	0	0	554.0	1
184.767578125	0.2	SCRAMBLED	0	0.993769917999998	0	0	560.0	1
186.517578125	0.2	FACES	1	0.908322411572954	0	0	565.0	1
188.08740234375	0.2	SCRAMBLED	0	0.757289105385098	0	0	571.0	1
189.5771484375	0.2	FACES	1	0.717208307500186	0	0	579.0	1
191.17724609375	0.2	FACES	1	0.615996942913625	0	0	585.0	1
192.60693359375	0.2	SCRAMBLED	0	0.635756927797047	0	0	593.0	1
194.07666015625	0.2	FACES	1	0.737555381021593	0	0	601.0	1
195.4765625	0.2	SCRAMBLED	0	0.617331098070281	0	0	609.0	1
196.86669921875	0.2	FACES	1	0.571029575382454	0	0	617.0	1
198.2763671875	0.2	SCRAMBLED	0	0.828050038666333	0	0	625.0	1
200.0166015625	0.2	FACES	1	0.69395205130877	0	0	630.0	1
201.5361328125	0.2	SCRAMBLED	0	0.698595635682977	0	0	636.0	1
203.18603515625	0.2	SCRAMBLED	0	0.709495260730364	0	0	642.0	1
204.755859375	0.2	FACES	1	0.602274161036803	0	0	648.0	1
206.1357421875	0.2	SCRAMBLED	0	0.63403429805021	0	0	656.0	1
207.73583984375	0.2	SCRAMBLED	0	0.587947387199165	0	0	662.0	1
209.23583984375	0.2	FACES	1	0.490753278490047	0	0	669.0	1
210.3857421875	0.2	SCRAMBLED	0	0.43750418810032	0	0	677.0	1
211.79541015625	0.2	SCRAMBLED	0	0.459462510541925	0	0	685.0	1
213.20556640625	0.2	FACES	1	0.453106559152729	0	0	693.0	1
214.45556640625	0.2	FACES	1	0.624018475332377	0	0	701.0	1
215.84521484375	0.2	SCRAMBLED	0	0.505795726960059	0	0	709.0	1
217.27490234375	0.2	FACES	1	0.398729171935884	0	0	717.0	1
218.46484375	0.2	FACES	1	0.598525547259669	0	0	725.0	1
220.03515625	0.2	SCRAMBLED	0	0.539241064933776	0	0	731.0	1
221.36474609375	0.2	FACES	1	0.693036253403079	0	0	739.0	1
222.89453125	0.2	SCRAMBLED	0	0.524855129464413	0	0	745.0	1
224.21484375	0.2	SCRAMBLED	0	0.654505429890378	0	0	753.0	1
225.564453125	0.2	FACES	1	0.630572135233706	0	0	761.0	1
226.88427734375	0.2	FACES	1	0.627483354754077	0	0	769.0	1
228.37451171875	0.2	FACES	1	0.61300565838792	0	0	777.0	1
229.92431640625	0.2	FACES	1	0.527032036023229	0	0	783.0	1
231.2041015625	0.2	FACES	1	0.652838339635309	0	0	791.0	1
232.5439453125	0.2	SCRAMBLED	0	0.522889212600603	0	0	799.0	1
233.82373046875	0.2	FACES	1	0.630519010504031	0	0	807.0	1
235.263671875	0.2	SCRAMBLED	0	0.669284971315392	0	0	815.0	1
236.62353515625	0.2	SCRAMBLED	0	0.620107468914284	0	0	823.0	1
237.9736328125	0.2	FACES	1	0.666723514152181	0	0	831.0	1
239.3134765625	0.2	SCRAMBLED	0	0.627815686162648	0	0	839.0	1
240.6435546875	0.2	FACES	1	0.681600249686198	0	0	847.0	1
242.2431640625	0.2	FACES	1	0.638347362085369	0	0	853.0	1
243.80322265625	0.2	FACES	1	0.62225630388275	0	0	859.0	1
245.2529296875	0.2	FACES	1	0.646003963829571	0	0	867.0	1
246.6328125	0.2	SCRAMBLED	0	0.663807389046269	0	0	875.0	1
247.97265625	0.2	SCRAMBLED	0	1.0376808278279	0	0	883.0	1
249.83251953125	0.2	SCRAMBLED	0	0.544501620605843	0	0	887.0	1
251.1923828125	0.2	SCRAMBLED	0	0.709397462932429	0	0	895.0	1
252.80224609375	0.2	FACES	1	0.453076978337776	0	0	901.0	1
254.1923828125	0.2	SCRAMBLED	0	0.52473499513053	0	0	909.0	1
255.46240234375	0.2	SCRAMBLED	0	0.900774172205274	0	0	917.0	1
257.072265625	0.2	FACES	1	0.922254372074349	0	0	923.0	1
271.1708984375	0.2	SCRAMBLED	0	0.927717767625836	0	0	926.0	1
273.05078125	0.2	FACES	1	0.591459052604478	0	0	931.0	1
274.32080078125	0.2	FACES	1	0.717303690538756	0	0	939.0	1
275.720703125	0.2	FACES	1	0.64696352926876	0	0	947.0	1
277.04052734375	0.2	SCRAMBLED	0	0.627009759858083	0	0	955.0	1
278.46044921875	0.2	FACES	1	0.71387442883406	0	0	963.0	1
280.14013671875	0.2	SCRAMBLED	0	0.428670088784202	0	0	969.0	1
281.330078125	0.2	SCRAMBLED	0	0.557451075443169	0	0	977.0	1
282.85009765625	0.2	SCRAMBLED	0	0.427268622180236	0	0	983.0	1
284.10009765625	0.2	SCRAMBLED	0	0.579011867943336	0	0	991.0	1
285.5498046875	0.2	FACES	1	0.478970152956208	0	0	999.0	1
286.86962890625	0.2	FACES	1	0.658743334506653	0	0	1007.0	1
288.44970703125	0.2	SCRAMBLED	0	0.463543153882711	0	0	1013.0	1
289.74951171875	0.2	FACES	1	0.627317641817172	0	0	1021.0	1
291.0693359375	0.2	SCRAMBLED	0	0.639075714210776	0	0	1029.0	1
292.44921875	0.2	SCRAMBLED	0	0.6070354649828	0	0	1037.0	1
293.94921875	0.2	SCRAMBLED	0	0.585808211272706	0	0	1044.0	1
295.359375	0.2	FACES	1	0.505691590415154	0	0	1052.0	1
296.6689453125	0.2	SCRAMBLED	0	0.612470788943938	0	0	1060.0	1
298.05908203125	0.2	SCRAMBLED	0	0.544242939391552	0	0	1068.0	1
299.40869140625	0.2	FACES	1	0.502198639403105	0	0	1076.0	1
300.78857421875	0.2	SCRAMBLED	0	0.543806471437165	0	0	1084.0	1
302.1884765625	0.2	SCRAMBLED	0	0.578724511447945	0	0	1092.0	1
303.6083984375	0.2	FACES	1	0.528507756512226	0	0	1100.0	1
305.00830078125	0.2	FACES	1	0.56744395793703	0	0	1108.0	1
306.34814453125	0.2	FACES	1	0.752258857492052	0	0	1116.0	1
307.998046875	0.2	FACES	1	0.584039097387176	0	0	1122.0	1
309.41796875	0.2	FACES	1	0.568787168445851	0	0	1130.0	1
310.76806640625	0.2	FACES	1	0.60866965412788	0	0	1138.0	1
312.2880859375	0.2	FACES	1	0.663430384569438	0	0	1144.0	1
313.78759765625	0.2	SCRAMBLED	0	0.633004402712686	0	0	1152.0	1
315.357421875	0.2	SCRAMBLED	0	0.483063473789116	0	0	1158.0	1
316.5673828125	0.2	FACES	1	0.626837708175117	0	0	1166.0	1
317.95751953125	0.2	SCRAMBLED	0	0.577460082500693	0	0	1174.0	1
319.42724609375	0.2	SCRAMBLED	0	0.543535716419683	0	0	1182.0	1
320.8271484375	0.2	FACES	1	0.633069903089563	0	0	1190.0	1
322.20703125	0.2	FACES	1	0.682234426153627	0	0	1198.0	1
323.80712890625	0.2	FACES	1	0.622990994754218	0	0	1204.0	1
325.2470703125	0.2	SCRAMBLED	0	0.458803280935172	0	0	1212.0	1
326.52685546875	0.2	SCRAMBLED	0	0.704677511758746	0	0	1220.0	1
328.046875	0.2	FACES	1	0.612593338038096	0	0	1226.0	1
329.58642578125	0.2	FACES	1	0.637199143484395	0	0	1232.0	1
330.91650390625	0.2	FACES	1	0.677026693366315	0	0	1240.0	1
332.49658203125	0.2	SCRAMBLED	0	0.868510557635091	0	0	1246.0	1
334.1064453125	0.2	FACES	1	0.607872783173661	0	0	1252.0	1
335.3662109375	0.2	SCRAMBLED	0	0.717482684658535	0	0	1260.0	1
336.76611328125	0.2	SCRAMBLED	0	0.702280258306928	0	0	1268.0	1
338.43603515625	0.2	SCRAMBLED	0	0.539204843526022	0	0	1274.0	1
339.935546875	0.2	FACES	1	0.639970081117099	0	0	1281.0	1
341.48583984375	0.2	SCRAMBLED	0	0.528715124067276	0	0	1287.0	1
342.67578125	0.2	SCRAMBLED	0	0.797509959377749	0	0	1295.0	1
344.25537109375	0.2	SCRAMBLED	0	0.713045864148626	0	0	1301.0	1
345.92529296875	0.2	FACES	1	0.403218815330547	0	0	1307.0	1
347.0751953125	0.2	SCRAMBLED	0	0.583004372527284	0	0	1315.0	1
348.56494140625	0.2	FACES	1	0.533386780030924	0	0	1323.0	1
349.865234375	0.2	SCRAMBLED	0	0.527703943122106	0	0	1331.0	1
351.1650390625	0.2	FACES	1	0.568468721909994	0	0	1339.0	1
352.6650390625	0.2	FACES	1	0.518293923436431	0	0	1346.0	1
353.91455078125	0.2	FACES	1	0.617198889934116	0	0	1354.0	1
355.2646484375	0.2	SCRAMBLED	0	0.542950740697961	0	0	1362.0	1
356.61474609375	0.2	FACES	1	0.559807579812514	0	0	1370.0	1
358.0341796875	0.2	SCRAMBLED	0	0.659735197367809	0	0	1378.0	1
359.42431640625	0.2	SCRAMBLED	0	0.657459587474477	0	0	1386.0	1
360.97412109375	0.2	FACES	1	0.393240421400151	0	0	1392.0	1
362.154296875	0.2	FACES	1	0.448253796154859	0	0	1400.0	1
363.30419921875	0.2	FACES	1	0.571980991006058	0	0	1408.0	1
364.5439453125	0.2	SCRAMBLED	0	0.473724387692528	0	0	1416.0	1
365.923828125	0.2	FACES	1	0.47367518694773	0	0	1424.0	1
367.11376953125	0.2	FACES	1	0.562405560227489	0	0	1432.0	1
368.5634765625	0.2	FACES	1	0.458263581970641	0	0	1440.0	1
369.8134765625	0.2	FACES	1	0.503060708889279	0	0	1448.0	1
371.08349609375	0.2	SCRAMBLED	0	0.438896599353029	0	0	1456.0	1
372.21337890625	0.2	SCRAMBLED	0	0.571748872155695	0	0	1464.0	1
373.7333984375	0.2	FACES	1	0.403541789542942	0	0	1470.0	1
375.06298828125	0.2	FACES	1	0.578440777093419	0	0	1478.0	1
376.48291015625	0.2	SCRAMBLED	0	0.393976621497131	0	0	1486.0	1
377.82275390625	0.2	FACES	1	0.468251936788874	0	0	1494.0	1
379.1826171875	0.2	SCRAMBLED	0	0.437853120987711	0	0	1502.0	1
n/a	0.2	SCRAMBLED	0	0.547708120658172	1	0	n/a	1
381.802734375	0.2	SCRAMBLED	0	0.506513514508697	0	0	1510.0	1
383.00244140625	0.2	SCRAMBLED	0	n/a	0	1	1518.0	0
385.0224609375	0.2	SCRAMBLED	0	n/a	0	1	1520.0	1
385.84228515625	0.2	FACES	1	0.805012016451656	0	0	1527.0	1
387.3720703125	0.2	FACES	1	0.391945204255535	0	0	1533.0	1
388.72216796875	0.2	SCRAMBLED	0	0.439684414955082	0	0	1541.0	1
389.83203125	0.2	SCRAMBLED	0	0.527505027229381	0	0	1549.0	1
391.11181640625	0.2	SCRAMBLED	0	0.388380112273808	0	0	1557.0	1
392.26171875	0.2	FACES	1	0.462231033414355	0	0	1565.0	1
393.51171875	0.2	SCRAMBLED	0	0.472983961764839	0	0	1573.0	1
394.71142578125	0.2	FACES	1	0.387860636929872	0	0	1581.0	1
396.00146484375	0.2	FACES	1	0.313856378499622	0	0	1589.0	1
397.2314453125	0.2	FACES	1	0.309551766124969	0	0	1597.0	1
398.4814453125	0.2	FACES	1	0.322437833500771	0	0	1605.0	1
399.47119140625	0.2	SCRAMBLED	0	0.479252679931051	0	0	1615.0	1
400.62109375	0.2	FACES	1	0.52419046664636	0	0	1623.0	1
401.9208984375	0.2	FACES	1	0.374518481670748	0	0	1631.0	1
403.27099609375	0.2	SCRAMBLED	0	0.43576888086136	0	0	1639.0	1
404.60107421875	0.2	SCRAMBLED	0	0.508436871218692	0	0	1647.0	1
405.86083984375	0.2	SCRAMBLED	0	0.40346783750374	0	0	1655.0	1
406.970703125	0.2	FACES	1	0.382396335842714	0	0	1663.0	1
408.04052734375	0.2	SCRAMBLED	0	0.472326543227609	0	0	1671.0	1
409.29052734375	0.2	SCRAMBLED	0	0.402982772495307	0	0	1679.0	1
410.51025390625	0.2	FACES	1	0.394949468118284	0	0	1687.0	1
411.7802734375	0.2	FACES	1	0.368716717809548	0	0	1695.0	1
413.01025390625	0.2	FACES	1	0.463482784870394	0	0	1703.0	1
414.330078125	0.2	SCRAMBLED	0	0.408462769524704	0	0	1711.0	1
415.7001953125	0.2	SCRAMBLED	0	0.418223533168202	0	0	1719.0	1
416.9296875	0.2	SCRAMBLED	0	0.398061792512635	0	0	1727.0	1
418.02978515625	0.2	FACES	1	0.372922325003856	0	0	1735.0	1
419.1796875	0.2	FACES	1	0.39872192765506	0	0	1743.0	1
420.24951171875	0.2	FACES	1	0.441685949534985	0	0	1751.0	1
421.599609375	0.2	FACES	1	0.340468849892204	0	0	1759.0	1
422.74951171875	0.2	SCRAMBLED	0	0.39721058944906	0	0	1767.0	1
423.86962890625	0.2	SCRAMBLED	0	0.485253359686794	0	0	1775.0	1
425.109375	0.2	SCRAMBLED	0	0.327973370021027	0	0	1783.0	1
426.08935546875	0.2	FACES	1	0.401983967198248	0	0	1793.0	1
427.35888671875	0.2	FACES	1	0.363740500180938	0	0	1801.0	1
428.458984375	0.2	FACES	1	0.407643863882186	0	0	1809.0	1
429.68896484375	0.2	SCRAMBLED	0	0.433453125575397	0	0	1817.0	1
430.7890625	0.2	SCRAMBLED	0	0.458426880147272	0	0	1825.0	1
431.90869140625	0.2	FACES	1	0.39221777034254	0	0	1833.0	1
433.1787109375	0.2	SCRAMBLED	0	0.362953891959478	0	0	1841.0	1
434.30859375	0.2	FACES	1	0.451651364128338	0	0	1849.0	1
435.49853515625	0.2	SCRAMBLED	0	0.413691329621543	0	0	1857.0	1
436.66845703125	0.2	FACES	1	0.421480441345921	0	0	1865.0	1
437.74853515625	0.2	SCRAMBLED	0	0.417403118301081	0	0	1873.0	1
438.8984375	0.2	FACES	1	0.38712353129722	0	0	1881.0	1
440.01806640625	0.2	SCRAMBLED	0	0.363038710421279	0	0	1889.0	1
441.1181640625	0.2	SCRAMBLED	0	0.41296539225732	0	0	1897.0	1
442.3681640625	0.2	SCRAMBLED	0	0.433757385393619	0	0	1905.0	1
443.498046875	0.2	SCRAMBLED	0	0.372675717590937	0	0	1913.0	1
444.6376953125	0.2	SCRAMBLED	0	0.34749882129563	0	0	1921.0	1
445.8076171875	0.2	FACES	1	0.388429916709356	0	0	1929.0	1
446.91748046875	0.2	FACES	1	0.397238359194489	0	0	1937.0	1
448.15771484375	0.2	SCRAMBLED	0	0.363012148055532	0	0	1945.0	1
449.4375	0.2	FACES	1	0.362967474987272	0	0	1953.0	1
450.4873046875	0.2	SCRAMBLED	0	0.502693665298466	0	0	1961.0	1
451.83740234375	0.2	FACES	1	0.364687388128004	0	0	1969.0	1
452.95703125	0.2	FACES	1	0.372438467375105	0	0	1977.0	1
454.20703125	0.2	FACES	1	0.338087896073375	0	0	1985.0	1
455.5068359375	0.2	SCRAMBLED	0	0.36917823890326	0	0	1993.0	1
456.64697265625	0.2	FACES	1	0.383074581687652	0	0	2001.0	1
457.796875	0.2	SCRAMBLED	0	0.437877872282115	0	0	2009.0	1
459.12646484375	0.2	SCRAMBLED	0	0.339700352374166	0	0	2017.0	1
460.33642578125	0.2	SCRAMBLED	0	0.389492713157779	0	0	2025.0	1
461.58642578125	0.2	FACES	1	0.34331404140903	0	0	2033.0	1
462.63623046875	0.2	SCRAMBLED	0	0.427228476786695	0	0	2041.0	1
463.79638671875	0.2	FACES	1	0.407007574500312	0	0	2049.0	1
465.13623046875	0.2	SCRAMBLED	0	0.354926322639585	0	0	2057.0	1
466.3662109375	0.2	FACES	1	n/a	0	1	2065.0	0
479.52490234375	0.2	FACES	1	0.591727694707515	0	0	2069.0	1
480.93505859375	0.2	SCRAMBLED	0	0.358952935715024	0	0	2077.0	1
482.06494140625	0.2	SCRAMBLED	0	0.473630815723482	0	0	2085.0	1
483.19482421875	0.2	SCRAMBLED	0	0.527502914314027	0	0	2093.0	1
484.65478515625	0.2	SCRAMBLED	0	0.429301548646436	0	0	2101.0	1
485.884765625	0.2	FACES	1	0.404207056050836	0	0	2109.0	1
487.11474609375	0.2	FACES	1	0.397988444164184	0	0	2117.0	1
488.17431640625	0.2	SCRAMBLED	0	0.427960451052968	0	0	2125.0	1
489.4345703125	0.2	SCRAMBLED	0	0.35384511364191	0	0	2133.0	1
490.50439453125	0.2	FACES	1	0.332544813426466	0	0	2141.0	1
491.583984375	0.2	FACES	1	0.402476578333335	0	0	2149.0	1
492.92431640625	0.2	FACES	1	0.408272908983236	0	0	2157.0	1
494.0439453125	0.2	FACES	1	0.57207184636809	0	0	2165.0	1
495.494140625	0.2	SCRAMBLED	0	0.384981035074816	0	0	2173.0	1
496.57373046875	0.2	SCRAMBLED	0	0.39292529515933	0	0	2181.0	1
497.82373046875	0.2	SCRAMBLED	0	0.348777738805438	0	0	2189.0	1
498.84375	0.2	SCRAMBLED	0	0.386468527521174	0	0	2197.0	1
500.1337890625	0.2	FACES	1	0.393406134336146	0	0	2205.0	1
501.18359375	0.2	FACES	1	0.542235367910507	0	0	2213.0	1
502.4833984375	0.2	SCRAMBLED	0	0.397982709107055	0	0	2221.0	1
503.61328125	0.2	FACES	1	0.467945262209469	0	0	2229.0	1
504.953125	0.2	SCRAMBLED	0	0.367607739066443	0	0	2237.0	1
506.212890625	0.2	FACES	1	0.382642943254723	0	0	2245.0	1
507.43310546875	0.2	SCRAMBLED	0	0.373472286700235	0	0	2253.0	1
508.7529296875	0.2	SCRAMBLED	0	0.374090767223606	0	0	2261.0	1
510.07275390625	0.2	FACES	1	0.44413753509707	0	0	2269.0	1
511.47265625	0.2	FACES	1	0.393815436235855	0	0	2277.0	1
512.82275390625	0.2	FACES	1	0.363846145951356	0	0	2285.0	1
514.052734375	0.2	FACES	1	0.360633910843717	0	0	2293.0	1
515.17236328125	0.2	SCRAMBLED	0	0.408289510462055	0	0	2301.0	1
516.3623046875	0.2	FACES	1	0.488349082602326	0	0	2309.0	1
517.51220703125	0.2	FACES	1	0.42220486948554	0	0	2317.0	1
518.84228515625	0.2	FACES	1	0.333841841641515	0	0	2325.0	1
520.0419921875	0.2	FACES	1	0.328903354645263	0	0	2333.0	1
521.11181640625	0.2	SCRAMBLED	0	0.402660100128742	0	0	2341.0	1
522.48193359375	0.2	FACES	1	0.353628087044854	0	0	2349.0	1
523.73193359375	0.2	FACES	1	0.332435243670261	0	0	2357.0	1
525.03173828125	0.2	FACES	1	0.303181024329206	0	0	2365.0	1
526.01171875	0.2	SCRAMBLED	0	0.492989950371339	0	0	2375.0	1
527.28173828125	0.2	FACES	1	0.318983820501671	0	0	2383.0	1
528.30126953125	0.2	SCRAMBLED	0	n/a	0	1	2391.0	0
529.6015625	0.2	FACES	1	0.527538833875951	0	0	2399.0	1
531.03125	0.2	FACES	1	0.53344654535249	0	0	2407.0	1
532.47119140625	0.2	FACES	1	0.483205340967288	0	0	2415.0	1
533.9208984375	0.2	SCRAMBLED	0	0.46696336023615	0	0	2423.0	1
535.2607421875	0.2	SCRAMBLED	0	0.578933086383586	0	0	2431.0	1
536.56103515625	0.2	FACES	1	0.547706611432659	0	0	2439.0	1
537.94091796875	0.2	SCRAMBLED	0	0.474599436515746	0	0	2447.0	1
539.21044921875	0.2	SCRAMBLED	0	0.633536857394574	0	0	2455.0	1
540.5302734375	0.2	SCRAMBLED	0	0.632162858690208	0	0	2463.0	1
542.13037109375	0.2	SCRAMBLED	0	0.56996557155253	0	0	2469.0	1
543.400390625	0.2	FACES	1	0.501773339716237	0	0	2477.0	1
544.830078125	0.2	SCRAMBLED	0	0.554675911979757	0	0	2485.0	1
546.2001953125	0.2	FACES	1	0.432211636851207	0	0	2493.0	1
547.4501953125	0.2	SCRAMBLED	0	0.628387984394067	0	0	2501.0	1
548.89990234375	0.2	SCRAMBLED	0	0.63417465600196	0	0	2509.0	1
550.419921875	0.2	FACES	1	0.378690885909236	0	0	2515.0	1
551.44970703125	0.2	FACES	1	0.5930896196096	0	0	2523.0	1
552.8193359375	0.2	SCRAMBLED	0	0.395657898470745	0	0	2531.0	1
553.94970703125	0.2	SCRAMBLED	0	0.573473312972965	0	0	2539.0	1
555.45947265625	0.2	SCRAMBLED	0	0.443396505479541	0	0	2545.0	1
556.7392578125	0.2	SCRAMBLED	0	0.644201948832233	0	0	2553.0	1
558.08935546875	0.2	FACES	1	0.56299566731559	0	0	2561.0	1
559.4091796875	0.2	SCRAMBLED	0	0.435855812237605	0	0	2569.0	1
560.5888671875	0.2	SCRAMBLED	0	0.702558559450154	0	0	2577.0	1
562.1787109375	0.2	SCRAMBLED	0	0.454435281099904	0	0	2583.0	1
563.35888671875	0.2	FACES	1	0.447491637382882	0	0	2591.0	1
564.62841796875	0.2	SCRAMBLED	0	0.447018344331809	0	0	2599.0	1
565.74853515625	0.2	FACES	1	0.637983336945581	0	0	2607.0	1
567.12841796875	0.2	SCRAMBLED	0	0.703092221513543	0	0	2615.0	1
568.7685546875	0.2	SCRAMBLED	0	0.583628286262865	0	0	2621.0	1
570.1181640625	0.2	SCRAMBLED	0	0.687146652629053	0	0	2629.0	1
571.587890625	0.2	FACES	1	0.64821618626047	0	0	2637.0	1
572.93798828125	0.2	FACES	1	0.652108176439469	0	0	2645.0	1
574.5478515625	0.2	SCRAMBLED	0	0.508920125156692	0	0	2651.0	1
575.81787109375	0.2	SCRAMBLED	0	0.677659964297163	0	0	2659.0	1
577.40771484375	0.2	SCRAMBLED	0	0.799421544131292	0	0	2665.0	1
578.927734375	0.2	SCRAMBLED	0	0.737183809756061	0	0	2671.0	1
580.52734375	0.2	SCRAMBLED	0	0.609116082969194	0	0	2677.0	1
582.00732421875	0.2	FACES	1	0.507918603253529	0	0	2685.0	1
583.4072265625	0.2	SCRAMBLED	0	0.643653194516446	0	0	2693.0	1
584.876953125	0.2	FACES	1	0.617517940160724	0	0	2701.0	1
586.35693359375	0.2	SCRAMBLED	0	0.666111070529951	0	0	2709.0	1
587.76708984375	0.2	FACES	1	0.70815627605225	0	0	2717.0	1
589.4169921875	0.2	FACES	1	0.483908941797381	0	0	2723.0	1
590.81640625	0.2	FACES	1	0.662698410303165	0	0	2731.0	1
592.38671875	0.2	FACES	1	0.713485048709117	0	0	2737.0	1
593.896484375	0.2	FACES	1	0.833277693227501	0	0	2743.0	1
595.55615234375	0.2	SCRAMBLED	0	0.638008390085815	0	0	2749.0	1
597.01611328125	0.2	SCRAMBLED	0	n/a	0	1	2757.0	0
598.826171875	0.2	FACES	1	0.520735849956509	0	0	2759.0	1
600.23583984375	0.2	SCRAMBLED	0	0.373620492622649	0	0	2767.0	1
601.28564453125	0.2	FACES	1	0.577412994671249	0	0	2775.0	1
602.67578125	0.2	FACES	1	0.503115946534308	0	0	2783.0	1
603.95556640625	0.2	SCRAMBLED	0	0.49312547880163	0	0	2791.0	1
605.1455078125	0.2	SCRAMBLED	0	0.622781514284725	0	0	2799.0	1
606.4755859375	0.2	FACES	1	0.391703728209905	0	0	2807.0	1
607.54541015625	0.2	SCRAMBLED	0	0.57263388186675	0	0	2815.0	1
609.0751953125	0.2	FACES	1	0.373432744997444	0	0	2821.0	1
610.1650390625	0.2	SCRAMBLED	0	0.537208138467577	0	0	2829.0	1
611.4150390625	0.2	SCRAMBLED	0	0.598028710294784	0	0	2837.0	1
612.6650390625	0.2	FACES	1	0.582954266247725	0	0	2845.0	1
614.18505859375	0.2	FACES	1	0.418691694853806	0	0	2851.0	1
615.48486328125	0.2	FACES	1	0.387612822136362	0	0	2859.0	1
616.564453125	0.2	SCRAMBLED	0	0.50242623057693	0	0	2867.0	1
617.96435546875	0.2	SCRAMBLED	0	0.51935490881533	0	0	2875.0	1
619.3544921875	0.2	FACES	1	0.48214495927823	0	0	2883.0	1
620.58447265625	0.2	SCRAMBLED	0	0.487999847870924	0	0	2891.0	1
621.93408203125	0.2	FACES	1	0.393714016296144	0	0	2899.0	1
623.17431640625	0.2	SCRAMBLED	0	0.485417261552357	0	0	2907.0	1
624.4541015625	0.2	FACES	1	0.472462675349561	0	0	2915.0	1
625.81396484375	0.2	FACES	1	0.456981947853819	0	0	2923.0	1
627.2236328125	0.2	FACES	1	0.653005561797727	0	0	2931.0	1
628.56396484375	0.2	FACES	1	0.627534064724387	0	0	2939.0	1
630.1337890625	0.2	SCRAMBLED	0	0.453676744467884	0	0	2945.0	1
631.54345703125	0.2	SCRAMBLED	0	0.619332028960343	0	0	2953.0	1
633.13330078125	0.2	SCRAMBLED	0	0.559357226985412	0	0	2959.0	1
634.50341796875	0.2	SCRAMBLED	0	0.549171465499967	0	0	2967.0	1
635.9033203125	0.2	SCRAMBLED	0	0.508895977552129	0	0	2975.0	1
637.212890625	0.2	SCRAMBLED	0	0.337842496041048	0	0	2983.0	1
638.40283203125	0.2	FACES	1	0.418638871969051	0	0	2991.0	1
639.72314453125	0.2	SCRAMBLED	0	0.469447846909134	0	0	2999.0	1
641.123046875	0.2	SCRAMBLED	0	0.383328735227224	0	0	3007.0	1
642.47265625	0.2	FACES	1	0.41313955685473	0	0	3015.0	1
643.79248046875	0.2	FACES	1	0.393964245849929	0	0	3023.0	1
644.97265625	0.2	SCRAMBLED	0	0.51382269259102	0	0	3031.0	1
646.142578125	0.2	FACES	1	0.481810213109384	0	0	3039.0	1
647.322265625	0.2	FACES	1	0.602446816409611	0	0	3047.0	1
648.64208984375	0.2	FACES	1	0.44239649280189	0	0	3055.0	1
649.9921875	0.2	FACES	1	0.413162798924532	0	0	3063.0	1
651.162109375	0.2	SCRAMBLED	0	0.417926517631713	0	0	3071.0	1
652.44189453125	0.2	SCRAMBLED	0	0.599908601317111	0	0	3079.0	1
653.78173828125	0.2	FACES	1	0.416670842189887	0	0	3087.0	1
654.90185546875	0.2	SCRAMBLED	0	0.648455549390746	0	0	3095.0	1
656.431640625	0.2	FACES	1	0.43836897419169	0	0	3101.0	1
657.7314453125	0.2	FACES	1	0.453032305268607	0	0	3109.0	1
658.92138671875	0.2	FACES	1	0.506962659955207	0	0	3117.0	1
660.33154296875	0.2	SCRAMBLED	0	0.488867048722568	0	0	3125.0	1
661.541015625	0.2	FACES	1	0.601640890105045	0	0	3133.0	1
663.05126953125	0.2	FACES	1	0.628446542334132	0	0	3139.0	1
664.64111328125	0.2	FACES	1	0.573376118864871	0	0	3145.0	1
665.9111328125	0.2	SCRAMBLED	0	0.453136441813513	0	0	3153.0	1
667.041015625	0.2	SCRAMBLED	0	0.632968181305841	0	0	3161.0	1
668.44091796875	0.2	SCRAMBLED	0	0.435868791575558	0	0	3169.0	1
669.66064453125	0.2	FACES	1	0.417641274051675	0	0	3177.0	1
670.890625	0.2	SCRAMBLED	0	0.429415947923189	0	0	3185.0	1
672.140625	0.2	FACES	1	0.388204740295805	0	0	3193.0	1
673.400390625	0.2	FACES	1	0.373169837951536	0	0	3201.0	1
674.68017578125	0.2	FACES	1	0.343873058457575	0	0	3209.0	1
675.88037109375	0.2	SCRAMBLED	0	0.408932138589989	0	0	3217.0	1
696.1787109375	0.2	FACES	1	0.660967027049992	0	0	3221.0	1
697.54833984375	0.2	FACES	1	0.603139852662935	0	0	3229.0	1
698.9482421875	0.2	SCRAMBLED	0	0.543868651519915	0	0	3237.0	1
700.4482421875	0.2	SCRAMBLED	0	0.479670131646344	0	0	3244.0	1
701.76806640625	0.2	FACES	1	0.589071458195576	0	0	3252.0	1
703.23828125	0.2	SCRAMBLED	0	0.45237699964764	0	0	3260.0	1
704.34814453125	0.2	FACES	1	0.551153681996766	0	0	3268.0	1
705.7080078125	0.2	FACES	1	0.584069583737801	0	0	3276.0	1
707.017578125	0.2	SCRAMBLED	0	0.492835103856123	0	0	3284.0	1
708.267578125	0.2	SCRAMBLED	0	0.5074362548512	0	0	3292.0	1
709.7275390625	0.2	SCRAMBLED	0	0.484432642973843	0	0	3300.0	1
710.857421875	0.2	FACES	1	0.452391488211106	0	0	3308.0	1
712.27734375	0.2	FACES	1	0.393035770450297	0	0	3316.0	1
713.42724609375	0.2	SCRAMBLED	0	0.498091131852561	0	0	3324.0	1
714.7470703125	0.2	SCRAMBLED	0	0.389882696973473	0	0	3332.0	1
715.9072265625	0.2	FACES	1	0.448829414680404	0	0	3340.0	1
717.2470703125	0.2	SCRAMBLED	0	0.423589734611596	0	0	3348.0	1
718.44677734375	0.2	FACES	1	0.448792287737888	0	0	3356.0	1
719.57666015625	0.2	FACES	1	0.437183628649109	0	0	3364.0	1
720.796875	0.2	FACES	1	0.37714815581694	0	0	3372.0	1
n/a	0.2	SCRAMBLED	0	0.469870731834817	1	0	n/a	1
n/a	0.2	FACES	1	0.397832692113298	1	0	n/a	1
724.56640625	0.2	FACES	1	0.358618189545268	0	0	3380.0	1
725.88623046875	0.2	FACES	1	0.443426991830165	0	0	3388.0	1
727.13623046875	0.2	SCRAMBLED	0	0.388356870204916	0	0	3396.0	1
728.43603515625	0.2	FACES	1	0.464736347396865	0	0	3404.0	1
729.55615234375	0.2	SCRAMBLED	0	0.476661943797808	0	0	3412.0	1
730.68603515625	0.2	FACES	1	0.621849718590056	0	0	3420.0	1
732.255859375	0.2	SCRAMBLED	0	0.573621518896289	0	0	3426.0	1
733.755859375	0.2	FACES	1	0.408406928189834	0	0	3433.0	1
734.8955078125	0.2	FACES	1	0.53720391263596	0	0	3441.0	1
736.1455078125	0.2	FACES	1	0.622122586521982	0	0	3449.0	1
737.6953125	0.2	SCRAMBLED	0	0.45288228827485	0	0	3455.0	1
738.8154296875	0.2	SCRAMBLED	0	0.517830289426456	0	0	3463.0	1
740.1953125	0.2	SCRAMBLED	0	0.458610100097758	0	0	3471.0	1
741.4150390625	0.2	SCRAMBLED	0	0.417420021623911	0	0	3479.0	1
742.615234375	0.2	FACES	1	0.548118026247721	0	0	3487.0	1
743.89501953125	0.2	SCRAMBLED	0	0.413122955376821	0	0	3495.0	1
745.10498046875	0.2	FACES	1	0.437965709194032	0	0	3503.0	1
746.41455078125	0.2	SCRAMBLED	0	0.3437803920242	0	0	3511.0	1
747.66455078125	0.2	SCRAMBLED	0	0.518551095425209	0	0	3519.0	1
748.90478515625	0.2	FACES	1	0.411441980248128	0	0	3527.0	1
749.974609375	0.2	FACES	1	0.602347207540333	0	0	3535.0	1
751.5244140625	0.2	FACES	1	0.413072849097261	0	0	3541.0	1
752.72412109375	0.2	FACES	1	0.507924036465738	0	0	3549.0	1
754.14404296875	0.2	SCRAMBLED	0	0.377707474710405	0	0	3557.0	1
755.2041015625	0.2	FACES	1	0.606642764562821	0	0	3565.0	1
756.494140625	0.2	SCRAMBLED	0	0.432583509962569	0	0	3573.0	1
757.744140625	0.2	FACES	1	0.472389327000201	0	0	3581.0	1
758.8740234375	0.2	FACES	1	0.562152010378668	0	0	3589.0	1
760.36376953125	0.2	SCRAMBLED	0	0.453962289892843	0	0	3597.0	1
761.68359375	0.2	FACES	1	0.443921112189855	0	0	3605.0	1
762.86328125	0.2	FACES	1	0.43664483521934	0	0	3613.0	1
763.9833984375	0.2	SCRAMBLED	0	0.413573308203922	0	0	3621.0	1
765.283203125	0.2	FACES	1	0.467376586120736	0	0	3629.0	1
766.55322265625	0.2	SCRAMBLED	0	0.428935108745463	0	0	3637.0	1
767.73291015625	0.2	FACES	1	0.363136508220123	0	0	3645.0	1
769.0732421875	0.2	SCRAMBLED	0	0.388844349973624	0	0	3653.0	1
770.3828125	0.2	FACES	1	0.587704401927112	0	0	3661.0	1
771.7529296875	0.2	FACES	1	0.638533902331801	0	0	3669.0	1
773.1025390625	0.2	FACES	1	0.632390148019113	0	0	3677.0	1
774.5927734375	0.2	FACES	1	0.4431879305439	0	0	3685.0	1
775.6923828125	0.2	SCRAMBLED	0	0.527643272265777	0	0	3693.0	1
777.1123046875	0.2	FACES	1	0.5788401181062	0	0	3701.0	1
778.54248046875	0.2	SCRAMBLED	0	0.43966117288528	0	0	3709.0	1
779.662109375	0.2	SCRAMBLED	0	0.573196822900172	0	0	3717.0	1
780.89208984375	0.2	FACES	1	0.593105315551838	0	0	3725.0	1
782.14208984375	0.2	SCRAMBLED	0	0.537213873522887	0	0	3733.0	1
783.5419921875	0.2	FACES	1	0.474960443205418	0	0	3741.0	1
784.681640625	0.2	FACES	1	0.5628218045631	0	0	3749.0	1
786.08154296875	0.2	SCRAMBLED	0	0.423827286672349	0	0	3757.0	1
787.181640625	0.2	SCRAMBLED	0	n/a	0	1	3765.0	0
789.0712890625	0.2	FACES	1	0.607362061336062	0	0	3767.0	1
790.431640625	0.2	SCRAMBLED	0	0.517848701975709	0	0	3775.0	1
791.84130859375	0.2	SCRAMBLED	0	0.423932328752926	0	0	3783.0	1
793.14111328125	0.2	SCRAMBLED	0	0.404848778644009	0	0	3791.0	1
794.30126953125	0.2	FACES	1	0.482618554174223	0	0	3799.0	1
795.701171875	0.2	SCRAMBLED	0	0.509428432234927	0	0	3807.0	1
796.970703125	0.2	SCRAMBLED	0	0.567345556448345	0	0	3815.0	1
798.37060546875	0.2	SCRAMBLED	0	0.513141730139978	0	0	3823.0	1
799.57080078125	0.2	FACES	1	0.496905786309981	0	0	3831.0	1
800.91064453125	0.2	SCRAMBLED	0	0.39482933378531	0	0	3839.0	1
802.26025390625	0.2	SCRAMBLED	0	0.388618569870232	0	0	3847.0	1
803.46044921875	0.2	SCRAMBLED	0	0.579453769109023	0	0	3855.0	1
804.85009765625	0.2	FACES	1	0.56334942972353	0	0	3863.0	1
806.26025390625	0.2	SCRAMBLED	0	0.378108324946879	0	0	3871.0	1
807.330078125	0.2	FACES	1	0.656916870059831	0	0	3879.0	1
808.75	0.2	FACES	1	0.512830226040023	0	0	3887.0	1
810.0	0.2	SCRAMBLED	0	0.432628484876659	0	0	3895.0	1
811.169921875	0.2	SCRAMBLED	0	0.572429532761817	0	0	3903.0	1
812.419921875	0.2	SCRAMBLED	0	0.602163383900916	0	0	3911.0	1
813.689453125	0.2	SCRAMBLED	0	0.648128349348553	0	0	3919.0	1
815.26953125	0.2	SCRAMBLED	0	0.643772423314658	0	0	3925.0	1
816.66943359375	0.2	FACES	1	n/a	0	1	3933.0	0
818.20947265625	0.2	SCRAMBLED	0	0.653596272575669	0	0	3939.0	1
819.8291015625	0.2	SCRAMBLED	0	0.668745574196691	0	0	3945.0	1
n/a	0.2	FACES	1	0.727018875578324	1	0	n/a	1
n/a	0.2	FACES	1	0.62881630253105	1	0	n/a	1
824.298828125	0.2	FACES	1	0.718569930557351	0	0	3952.0	1
825.94873046875	0.2	FACES	1	0.90739936938553	0	0	3958.0	1
827.5185546875	0.2	FACES	1	0.651336660470406	0	0	3964.0	1
829.068359375	0.2	SCRAMBLED	0	0.508995586421406	0	0	3970.0	1
830.318359375	0.2	FACES	1	0.718111427914664	0	0	3978.0	1
831.84814453125	0.2	FACES	1	0.690182006533178	0	0	3984.0	1
833.39794921875	0.2	FACES	1	0.682589395942159	0	0	3990.0	1
834.88818359375	0.2	FACES	1	0.653322499108071	0	0	3998.0	1
836.2578125	0.2	SCRAMBLED	0	0.537310162097128	0	0	4006.0	1
837.53759765625	0.2	SCRAMBLED	0	0.543098041085614	0	0	4014.0	1
838.8876953125	0.2	SCRAMBLED	0	0.619084516011753	0	0	4022.0	1
840.2275390625	0.2	SCRAMBLED	0	0.59669515882797	0	0	4030.0	1
841.4775390625	0.2	SCRAMBLED	0	0.637584297778631	0	0	4038.0	1
842.9775390625	0.2	SCRAMBLED	0	0.568397486475988	0	0	4045.0	1
844.22705078125	0.2	SCRAMBLED	0	0.722183921438955	0	0	4053.0	1
845.9072265625	0.2	SCRAMBLED	0	0.329071482342442	0	0	4059.0	1
847.21728515625	0.2	SCRAMBLED	0	0.378870181873936	0	0	4067.0	1
848.34716796875	0.2	FACES	1	0.551548797177929	0	0	4075.0	1
849.86669921875	0.2	SCRAMBLED	0	0.509591126721716	0	0	4081.0	1
851.14697265625	0.2	SCRAMBLED	0	0.563374181018844	0	0	4089.0	1
852.44677734375	0.2	SCRAMBLED	0	0.542162623250988	0	0	4097.0	1
853.6865234375	0.2	FACES	1	0.617055513531341	0	0	4105.0	1
855.25634765625	0.2	FACES	1	0.433856994262896	0	0	4111.0	1
856.5361328125	0.2	FACES	1	0.573507421464456	0	0	4119.0	1
857.916015625	0.2	FACES	1	0.413422385674494	0	0	4127.0	1
859.2861328125	0.2	FACES	1	0.473335913102346	0	0	4135.0	1
860.67626953125	0.2	FACES	1	0.452141560502241	0	0	4143.0	1
862.0361328125	0.2	SCRAMBLED	0	0.539921423694977	0	0	4151.0	1
863.22607421875	0.2	FACES	1	0.90281645586856	0	0	4159.0	1
864.87548828125	0.2	SCRAMBLED	0	0.622594068503531	0	0	4165.0	1
866.345703125	0.2	FACES	1	0.583419107637383	0	0	4173.0	1
867.595703125	0.2	FACES	1	0.672146462466117	0	0	4181.0	1
869.1455078125	0.2	FACES	1	0.479122584711149	0	0	4187.0	1
870.3251953125	0.2	FACES	1	0.492872834487571	0	0	4195.0	1
871.5654296875	0.2	SCRAMBLED	0	0.422791052587854	0	0	4203.0	1
872.84521484375	0.2	SCRAMBLED	0	0.538586061156821	0	0	4211.0	1
874.21484375	0.2	FACES	1	0.418385020275309	0	0	4219.0	1
875.51513671875	0.2	SCRAMBLED	0	0.613341008247517	0	0	4227.0	1
876.86474609375	0.2	SCRAMBLED	0	0.623059211738109	0	0	4235.0	1
878.2548828125	0.2	SCRAMBLED	0	0.566886148269987	0	0	4243.0	1
879.58447265625	0.2	SCRAMBLED	0	0.53776051492332	0	0	4251.0	1
880.8046875	0.2	SCRAMBLED	0	0.773542556228676	0	0	4259.0	1
882.2841796875	0.2	FACES	1	0.521383005760981	0	0	4267.0	1
883.55419921875	0.2	SCRAMBLED	0	0.622294336360937	0	0	4275.0	1
885.07421875	0.2	FACES	1	0.593888301632433	0	0	4281.0	1
886.6142578125	0.2	FACES	1	0.558863408470643	0	0	4287.0	1
888.1240234375	0.2	FACES	1	0.543568315686571	0	0	4293.0	1
889.61376953125	0.2	FACES	1	0.593379994554198	0	0	4301.0	1
890.86376953125	0.2	FACES	1	0.61230930183774	0	0	4309.0	1
892.16357421875	0.2	SCRAMBLED	0	0.563070524890463	0	0	4317.0	1
893.66357421875	0.2	SCRAMBLED	0	0.565014407064155	0	0	4324.0	1
895.0634765625	0.2	SCRAMBLED	0	0.533670816231279	0	0	4332.0	1
