onset	duration	trial_type	trial_type_id	response_time	bad_epoch	outliers	direction	name_direction	event_num	response_accuracy
61.5869140625	0.2	COHERENT	1	0.790368305303218	0	0	0	RIGHT	1.0	1
63.03662109375	0.2	RANDOM	0	0.947707758444267	0	0	0	NONE	5.0	1
64.806640625	0.2	RANDOM	0	0.844539230500231	0	0	0	NONE	8.0	1
66.556640625	0.2	COHERENT	1	0.709169569913229	0	0	0	RIGHT	11.0	1
67.896484375	0.2	COHERENT	1	0.873151727248114	0	0	0	RIGHT	15.0	1
69.6162109375	0.2	COHERENT	1	0.918794624018574	0	0	0	RIGHT	18.0	1
71.31591796875	0.2	RANDOM	0	0.93473506153714	0	0	0	NONE	21.0	1
73.14599609375	0.2	COHERENT	1	0.859404495921808	0	0	0	RIGHT	24.0	1
74.73583984375	0.2	RANDOM	0	0.80420578830126	0	0	0	NONE	27.0	1
76.23583984375	0.2	COHERENT	1	0.827644660753322	0	0	0	RIGHT	31.0	1
77.78564453125	0.2	COHERENT	1	0.79479244831964	0	0	0	RIGHT	34.0	1
79.21533203125	0.2	COHERENT	1	1.01253894555839	0	0	0	RIGHT	38.0	1
80.9052734375	0.2	RANDOM	0	0.873416445364001	0	0	0	NONE	40.0	1
82.525390625	0.2	RANDOM	0	0.959203225636884	0	0	0	NONE	43.0	1
84.205078125	0.2	RANDOM	0	0.914047808635132	0	0	0	NONE	46.0	1
85.89501953125	0.2	COHERENT	1	0.804790764024347	0	0	0	RIGHT	49.0	1
87.40478515625	0.2	RANDOM	0	0.797661787441939	0	0	0	NONE	52.0	1
89.11474609375	0.2	COHERENT	1	0.899396551359587	0	0	180	LEFT	55.0	1
90.61474609375	0.2	COHERENT	1	1.07817847373872	0	0	0	RIGHT	59.0	1
92.41455078125	0.2	COHERENT	1	0.894881552981133	0	0	180	LEFT	61.0	1
93.9443359375	0.2	RANDOM	0	0.957763726554731	0	0	0	NONE	64.0	1
95.6142578125	0.2	RANDOM	0	0.94728849565854	0	0	0	NONE	67.0	1
97.234375	0.2	COHERENT	1	0.743396686586493	0	0	180	LEFT	70.0	1
98.73388671875	0.2	COHERENT	1	0.919068699331092	0	0	0	RIGHT	74.0	1
100.40380859375	0.2	RANDOM	0	0.788934541277285	0	0	0	NONE	77.0	1
102.07373046875	0.2	RANDOM	0	0.784876536316006	0	0	0	NONE	80.0	1
103.5537109375	0.2	RANDOM	0	0.86760562615018	0	0	0	NONE	84.0	1
105.25341796875	0.2	RANDOM	0	0.694400894910359	0	0	0	NONE	87.0	1
106.5732421875	0.2	RANDOM	0	0.71307665234508	0	0	0	NONE	91.0	1
107.953125	0.2	RANDOM	0	0.792832870202346	0	0	0	NONE	95.0	1
109.5732421875	0.2	COHERENT	1	0.844901746414962	0	0	180	LEFT	98.0	1
111.22314453125	0.2	RANDOM	0	0.63952999102321	0	0	0	NONE	101.0	1
112.54296875	0.2	COHERENT	1	0.723305577673727	0	0	0	RIGHT	105.0	1
114.11279296875	0.2	COHERENT	1	0.659229606895224	0	0	0	RIGHT	108.0	1
115.49267578125	0.2	RANDOM	0	0.623888380112476	0	0	0	NONE	112.0	1
117.00244140625	0.2	RANDOM	0	0.704884275623044	0	0	0	NONE	115.0	1
118.45263671875	0.2	RANDOM	0	0.758552930643873	0	0	0	NONE	119.0	1
119.96240234375	0.2	COHERENT	1	0.789281361248413	0	0	180	LEFT	122.0	1
121.572265625	0.2	COHERENT	1	n/a	0	1	180	LEFT	125.0	0
122.85205078125	0.2	COHERENT	1	0.89313024795365	0	0	0	RIGHT	129.0	1
124.4921875	0.2	COHERENT	1	0.859051940894005	0	0	180	LEFT	132.0	1
125.9521484375	0.2	RANDOM	0	0.68754388072557	0	0	0	NONE	136.0	1
127.421875	0.2	RANDOM	0	0.834461227700103	0	0	0	NONE	140.0	1
128.86181640625	0.2	COHERENT	1	0.878425262258133	0	0	0	RIGHT	144.0	1
130.51171875	0.2	RANDOM	0	0.884046220930031	0	0	0	NONE	147.0	1
n/a	0.2	RANDOM	0	0.824637982129389	1	0	0	NONE	n/a	1
n/a	0.2	RANDOM	0	0.844707660042786	1	0	0	NONE	n/a	1
n/a	0.2	RANDOM	0	0.819475526100632	1	0	0	NONE	n/a	1
136.88134765625	0.2	RANDOM	0	0.769377396272375	0	0	0	NONE	150.0	1
138.3310546875	0.2	COHERENT	1	0.93305891592945	0	0	0	RIGHT	154.0	1
139.98095703125	0.2	COHERENT	1	0.714914285058967	0	0	180	LEFT	157.0	1
141.470703125	0.2	COHERENT	1	0.664594902802946	0	0	0	RIGHT	161.0	1
142.9306640625	0.2	COHERENT	1	0.879393883049488	0	0	0	RIGHT	165.0	1
144.62060546875	0.2	RANDOM	0	0.729845956393092	0	0	0	NONE	168.0	1
146.17041015625	0.2	RANDOM	0	0.733033138361407	0	0	0	NONE	171.0	1
147.79052734375	0.2	COHERENT	1	0.664774198767191	0	0	0	RIGHT	174.0	1
149.1201171875	0.2	RANDOM	0	0.79367169761872	0	0	0	NONE	178.0	1
n/a	0.2	RANDOM	0	0.849473189820401	1	0	0	NONE	n/a	1
152.2900390625	0.2	COHERENT	1	0.784259263172316	0	0	0	RIGHT	181.0	1
153.81005859375	0.2	COHERENT	1	0.694129234357661	0	0	180	LEFT	184.0	1
n/a	0.2	COHERENT	1	0.857713258061267	1	0	180	LEFT	n/a	1
n/a	0.2	COHERENT	1	0.908752842625745	1	0	180	LEFT	n/a	1
158.109375	0.2	COHERENT	1	1.13838086688702	0	0	180	LEFT	187.0	1
n/a	0.2	RANDOM	0	0.898404084809044	1	0	0	NONE	n/a	1
161.529296875	0.2	RANDOM	0	0.854118887109507	0	0	0	NONE	189.0	1
163.119140625	0.2	RANDOM	0	0.724707647969353	0	0	0	NONE	192.0	1
164.43896484375	0.2	COHERENT	1	0.838692491724487	0	0	0	RIGHT	196.0	1
165.89892578125	0.2	RANDOM	0	n/a	0	1	0	NONE	200.0	0
167.81884765625	0.2	RANDOM	0	n/a	0	1	0	NONE	201.0	0
169.8388671875	0.2	COHERENT	1	1.05401004178157	0	0	0	RIGHT	202.0	1
171.62841796875	0.2	RANDOM	0	0.904909751346167	0	0	0	NONE	204.0	1
173.20849609375	0.2	COHERENT	1	1.12337494166832	0	0	180	LEFT	207.0	1
175.158203125	0.2	RANDOM	0	0.953897393205807	0	0	0	NONE	209.0	1
176.7080078125	0.2	RANDOM	0	n/a	0	1	0	NONE	212.0	0
178.578125	0.2	RANDOM	0	n/a	0	1	0	NONE	213.0	0
180.57763671875	0.2	COHERENT	1	n/a	0	1	0	RIGHT	214.0	0
182.427734375	0.2	RANDOM	0	0.998301517857726	0	0	0	NONE	215.0	1
184.33740234375	0.2	RANDOM	0	1.05862887486046	0	0	0	NONE	217.0	1
186.21728515625	0.2	RANDOM	0	0.894479797208078	0	0	0	NONE	219.0	1
187.91748046875	0.2	RANDOM	0	0.869673566643542	0	0	0	NONE	222.0	1
189.6572265625	0.2	COHERENT	1	0.864445912081919	0	0	180	LEFT	225.0	1
191.20703125	0.2	COHERENT	1	1.04310045584634	0	0	180	LEFT	228.0	1
192.97705078125	0.2	RANDOM	0	0.943999290060674	0	0	0	NONE	230.0	1
194.63671875	0.2	COHERENT	1	0.80494440315897	0	0	180	LEFT	233.0	1
196.146484375	0.2	RANDOM	0	0.978708453291347	0	0	0	NONE	236.0	1
197.7265625	0.2	COHERENT	1	n/a	0	1	180	LEFT	239.0	0
199.42626953125	0.2	RANDOM	0	1.07325658822128	0	0	0	NONE	241.0	1
201.12646484375	0.2	COHERENT	1	0.802767194754324	0	0	180	LEFT	243.0	1
202.56640625	0.2	COHERENT	1	0.972910009725638	0	0	180	LEFT	247.0	1
204.26611328125	0.2	RANDOM	0	1.04471562875233	0	0	0	NONE	250.0	1
205.93603515625	0.2	RANDOM	0	1.0331133084087	0	0	0	NONE	252.0	1
207.86572265625	0.2	RANDOM	0	0.929118328695949	0	0	0	NONE	254.0	1
209.685546875	0.2	COHERENT	1	0.769903814053578	0	0	180	LEFT	257.0	1
211.28564453125	0.2	COHERENT	1	n/a	0	1	180	LEFT	260.0	0
212.8251953125	0.2	RANDOM	0	0.89834794162789	0	0	0	NONE	263.0	1
214.37548828125	0.2	COHERENT	1	0.968256464464503	0	0	0	RIGHT	266.0	1
215.955078125	0.2	RANDOM	0	0.913009461635284	0	0	0	NONE	269.0	1
217.64501953125	0.2	RANDOM	0	1.16481887183591	0	0	0	NONE	272.0	1
219.69482421875	0.2	COHERENT	1	0.824701369591821	0	0	0	RIGHT	274.0	1
221.1650390625	0.2	RANDOM	0	1.00844079520493	0	0	0	NONE	278.0	1
223.08447265625	0.2	COHERENT	1	0.889123254807146	0	0	180	LEFT	280.0	1
224.814453125	0.2	COHERENT	1	0.689000886820395	0	0	180	LEFT	283.0	1
226.09423828125	0.2	RANDOM	0	0.858687312063466	0	0	0	NONE	287.0	1
n/a	0.2	COHERENT	1	0.9636409516811	1	0	180	LEFT	n/a	1
229.154296875	0.2	RANDOM	0	0.898454794778445	0	0	0	NONE	290.0	1
230.833984375	0.2	RANDOM	0	0.944166814067557	0	0	0	NONE	293.0	1
232.4541015625	0.2	COHERENT	1	0.902997562903238	0	0	0	RIGHT	296.0	1
234.00390625	0.2	COHERENT	1	0.927913061379058	0	0	0	RIGHT	299.0	1
n/a	0.2	RANDOM	0	0.78460940343939	1	0	0	NONE	n/a	1
237.2236328125	0.2	COHERENT	1	0.844343936747464	0	0	180	LEFT	302.0	1
238.943359375	0.2	COHERENT	1	0.845154692573942	0	0	0	RIGHT	305.0	1
n/a	0.2	RANDOM	0	1.18755142685177	1	0	0	NONE	n/a	1
n/a	0.2	RANDOM	0	1.06344632198761	1	0	0	NONE	n/a	1
244.11328125	0.2	COHERENT	1	0.919491584257685	0	0	0	RIGHT	308.0	1
245.86279296875	0.2	RANDOM	0	0.814220101794035	0	0	0	NONE	311.0	1
247.56298828125	0.2	COHERENT	1	0.829104685299171	0	0	180	LEFT	314.0	1
249.23291015625	0.2	RANDOM	0	0.784757911207635	0	0	0	NONE	317.0	1
n/a	0.2	RANDOM	0	1.09968614150876	1	0	0	NONE	n/a	1
252.732421875	0.2	COHERENT	1	0.97430423204878	0	0	0	RIGHT	320.0	1
254.54248046875	0.2	COHERENT	1	0.744074932431886	0	0	180	LEFT	323.0	1
255.89208984375	0.2	RANDOM	0	0.877995736740104	0	0	0	NONE	327.0	1
257.40185546875	0.2	RANDOM	0	0.917852263747136	0	0	0	NONE	330.0	1
259.1220703125	0.2	COHERENT	1	0.769683769006406	0	0	180	LEFT	333.0	1
260.56201171875	0.2	RANDOM	0	0.988386813234683	0	0	0	NONE	337.0	1
262.19189453125	0.2	COHERENT	1	1.00791437742373	0	0	0	RIGHT	340.0	1
264.04150390625	0.2	COHERENT	1	0.939821754456261	0	0	180	LEFT	342.0	1
265.8115234375	0.2	RANDOM	0	0.784798056600721	0	0	0	NONE	345.0	1
267.50146484375	0.2	COHERENT	1	0.648391860084303	0	0	180	LEFT	348.0	1
268.8310546875	0.2	COHERENT	1	0.783245667466872	0	0	0	RIGHT	352.0	1
270.52099609375	0.2	COHERENT	1	0.799071403863309	0	0	180	LEFT	355.0	1
272.18115234375	0.2	COHERENT	1	0.714798074711325	0	0	0	RIGHT	358.0	1
273.52099609375	0.2	COHERENT	1	0.872847467429438	0	0	180	LEFT	362.0	1
275.05078125	0.2	COHERENT	1	0.918638268278755	0	0	0	RIGHT	365.0	1
276.62060546875	0.2	COHERENT	1	0.958335421094944	0	0	180	LEFT	368.0	1
278.3603515625	0.2	RANDOM	0	0.74413077376812	0	0	0	NONE	371.0	1
279.91015625	0.2	COHERENT	1	0.759831244464749	0	0	180	LEFT	374.0	1
281.34033203125	0.2	RANDOM	0	0.883745281406846	0	0	0	NONE	378.0	1
283.0400390625	0.2	COHERENT	1	0.654464982652826	0	0	180	LEFT	381.0	1
284.43017578125	0.2	COHERENT	1	0.714381830376169	0	0	0	RIGHT	385.0	1
286.0400390625	0.2	COHERENT	1	0.668898005951178	0	0	180	LEFT	388.0	1
287.57958984375	0.2	COHERENT	1	0.704941626184336	0	0	180	LEFT	391.0	1
289.15966796875	0.2	RANDOM	0	0.714511321906684	0	0	0	NONE	394.0	1
290.7294921875	0.2	RANDOM	0	0.779497355535568	0	0	0	NONE	397.0	1
292.1796875	0.2	COHERENT	1	0.613215742548164	0	0	0	RIGHT	401.0	1
293.41943359375	0.2	RANDOM	0	0.683306579800046	0	0	0	NONE	405.0	1
294.8994140625	0.2	RANDOM	0	0.838838282887991	0	0	0	NONE	409.0	1
296.4189453125	0.2	COHERENT	1	0.702723065007376	0	0	0	RIGHT	412.0	1
297.958984375	0.2	RANDOM	0	0.994641646528635	0	0	0	NONE	415.0	1
299.60888671875	0.2	RANDOM	0	0.78844313752279	0	0	0	NONE	418.0	1
301.208984375	0.2	COHERENT	1	0.764244521059481	0	0	0	RIGHT	421.0	1
n/a	0.2	RANDOM	0	0.599828310530938	1	0	0	NONE	n/a	1
323.7568359375	0.2	RANDOM	0	0.574349569176775	0	0	0	NONE	425.0	1
325.13671875	0.2	RANDOM	0	0.618985208988306	0	0	0	NONE	429.0	1
326.5068359375	0.2	COHERENT	1	0.63001281634115	0	0	180	LEFT	433.0	1
327.85693359375	0.2	COHERENT	1	0.614868042395756	0	0	0	RIGHT	437.0	1
329.0966796875	0.2	COHERENT	1	0.793719389138005	0	0	0	RIGHT	441.0	1
330.7666015625	0.2	COHERENT	1	0.574431972877392	0	0	0	RIGHT	444.0	1
331.96630859375	0.2	COHERENT	1	0.713407172683674	0	0	180	LEFT	448.0	1
n/a	0.2	COHERENT	1	0.794115108009009	1	0	180	LEFT	n/a	1
n/a	0.2	COHERENT	1	0.847912952714523	1	0	180	LEFT	n/a	1
336.73583984375	0.2	RANDOM	0	0.654685631390748	0	0	0	NONE	451.0	1
n/a	0.2	RANDOM	0	0.929228803987371	1	0	0	NONE	n/a	1
339.666015625	0.2	COHERENT	1	0.778374190073919	0	0	0	RIGHT	454.0	1
341.10595703125	0.2	RANDOM	0	0.848026446456515	0	0	0	NONE	458.0	1
342.62548828125	0.2	RANDOM	0	0.922895490978135	0	0	0	NONE	461.0	1
344.435546875	0.2	COHERENT	1	0.769542203674064	0	0	0	RIGHT	464.0	1
345.85546875	0.2	RANDOM	0	1.02847334617582	0	0	0	NONE	468.0	1
347.54541015625	0.2	RANDOM	0	1.13798333694513	0	0	0	NONE	470.0	1
349.4052734375	0.2	RANDOM	0	1.03471550197764	0	0	0	NONE	472.0	1
351.06494140625	0.2	COHERENT	1	0.943746645747069	0	0	0	RIGHT	474.0	1
352.81494140625	0.2	RANDOM	0	0.729444502465867	0	0	0	NONE	477.0	1
354.14453125	0.2	COHERENT	1	0.858489301705504	0	0	180	LEFT	481.0	1
355.64453125	0.2	RANDOM	0	n/a	0	1	0	NONE	485.0	0
357.70458984375	0.2	COHERENT	1	0.780129419087189	0	0	180	LEFT	486.0	1
359.1044921875	0.2	RANDOM	0	1.04382820428145	0	0	0	NONE	490.0	1
360.984375	0.2	COHERENT	1	0.634596937238712	0	0	180	LEFT	492.0	1
362.3740234375	0.2	RANDOM	0	0.699413937634745	0	0	0	NONE	496.0	1
363.8837890625	0.2	RANDOM	0	0.863764345941036	0	0	0	NONE	499.0	1
365.5537109375	0.2	RANDOM	0	0.93996422532382	0	0	0	NONE	502.0	1
367.27392578125	0.2	RANDOM	0	n/a	0	1	0	NONE	505.0	0
369.103515625	0.2	RANDOM	0	n/a	0	1	0	NONE	506.0	0
371.193359375	0.2	RANDOM	0	n/a	0	1	0	NONE	507.0	0
372.9833984375	0.2	COHERENT	1	0.558860390020072	0	0	0	RIGHT	508.0	1
374.14306640625	0.2	RANDOM	0	0.677866728162826	0	0	0	NONE	512.0	1
375.43310546875	0.2	COHERENT	1	0.687752153815381	0	0	180	LEFT	516.0	1
n/a	0.2	COHERENT	1	0.763575934256096	1	0	180	LEFT	n/a	1
378.1328125	0.2	COHERENT	1	0.693402995148517	0	0	180	LEFT	520.0	1
379.65283203125	0.2	RANDOM	0	0.854129753531197	0	0	0	NONE	523.0	1
381.20263671875	0.2	COHERENT	1	0.657988118171033	0	0	0	RIGHT	526.0	1
382.72265625	0.2	COHERENT	1	0.779846892112801	0	0	0	RIGHT	529.0	1
384.08251953125	0.2	RANDOM	0	0.802216327523638	0	0	0	NONE	533.0	1
385.572265625	0.2	COHERENT	1	1.01896975452155	0	0	0	RIGHT	537.0	1
387.47216796875	0.2	COHERENT	1	0.754963691058038	0	0	180	LEFT	539.0	1
388.92236328125	0.2	COHERENT	1	0.877972796515678	0	0	180	LEFT	543.0	1
390.57177734375	0.2	COHERENT	1	0.674847975736611	0	0	180	LEFT	546.0	1
391.86181640625	0.2	RANDOM	0	0.718651126878285	0	0	0	NONE	550.0	1
393.431640625	0.2	RANDOM	0	1.16918958827728	0	0	0	NONE	553.0	1
395.3115234375	0.2	COHERENT	1	0.984926159643692	0	0	0	RIGHT	555.0	1
397.08154296875	0.2	RANDOM	0	0.844908085161478	0	0	0	NONE	558.0	1
398.6513671875	0.2	RANDOM	0	0.83486087055735	0	0	0	NONE	561.0	1
400.13134765625	0.2	COHERENT	1	0.808467236831802	0	0	180	LEFT	565.0	1
401.53125	0.2	RANDOM	0	0.958200194509118	0	0	0	NONE	569.0	1
403.15087890625	0.2	COHERENT	1	1.11785389371062	0	0	180	LEFT	572.0	1
n/a	0.2	RANDOM	0	0.799944339771173	1	0	0	NONE	n/a	1
406.6708984375	0.2	RANDOM	0	0.820696791205592	0	0	0	NONE	574.0	1
408.220703125	0.2	RANDOM	0	0.854505852474176	0	0	0	NONE	577.0	1
409.9404296875	0.2	RANDOM	0	0.754339173632616	0	0	0	NONE	580.0	1
411.5703125	0.2	COHERENT	1	0.644107169483959	0	0	0	RIGHT	583.0	1
413.09033203125	0.2	RANDOM	0	0.774879729836357	0	0	0	NONE	586.0	1
414.5400390625	0.2	RANDOM	0	1.12346126935518	0	0	0	NONE	590.0	1
416.56005859375	0.2	RANDOM	0	n/a	0	1	0	NONE	592.0	0
418.64990234375	0.2	COHERENT	1	0.674951508591221	0	0	0	RIGHT	593.0	1
420.099609375	0.2	RANDOM	0	0.875037051480831	0	0	0	NONE	597.0	1
421.7998046875	0.2	COHERENT	1	0.6647654452604	0	0	180	LEFT	600.0	1
423.2294921875	0.2	COHERENT	1	0.564634685981673	0	0	0	RIGHT	604.0	1
424.599609375	0.2	COHERENT	1	0.829448486820638	0	0	0	RIGHT	608.0	1
426.03955078125	0.2	RANDOM	0	0.67807409571742	0	0	0	NONE	612.0	1
427.5390625	0.2	COHERENT	1	0.765032638506	0	0	180	LEFT	616.0	1
429.00927734375	0.2	RANDOM	0	0.597970756043651	0	0	0	NONE	620.0	1
430.26904296875	0.2	RANDOM	0	1.12267586851431	0	0	0	NONE	624.0	1
432.01904296875	0.2	COHERENT	1	0.643437375299982	0	0	180	LEFT	626.0	1
433.32861328125	0.2	COHERENT	1	n/a	0	1	180	LEFT	630.0	0
435.02880859375	0.2	RANDOM	0	0.699098811394379	0	0	0	NONE	633.0	1
436.32861328125	0.2	COHERENT	1	0.638026802633703	0	0	0	RIGHT	637.0	1
437.80859375	0.2	RANDOM	0	0.619663152988778	0	0	0	NONE	641.0	1
439.17822265625	0.2	COHERENT	1	n/a	0	1	0	RIGHT	645.0	0
441.0283203125	0.2	COHERENT	1	0.868357220344933	0	0	180	LEFT	646.0	1
442.51806640625	0.2	RANDOM	0	0.773284176859761	0	0	0	NONE	650.0	1
444.0478515625	0.2	RANDOM	0	0.59989954596449	0	0	0	NONE	653.0	1
445.51806640625	0.2	COHERENT	1	0.664777820908057	0	0	180	LEFT	657.0	1
446.91796875	0.2	COHERENT	1	0.704338237912907	0	0	180	LEFT	661.0	1
448.517578125	0.2	COHERENT	1	0.709396859241679	0	0	0	RIGHT	664.0	1
450.00732421875	0.2	RANDOM	0	0.804032529238611	0	0	0	NONE	668.0	1
451.4072265625	0.2	RANDOM	0	0.80792361388194	0	0	0	NONE	672.0	1
453.12744140625	0.2	RANDOM	0	0.828807066072386	0	0	0	NONE	675.0	1
454.68701171875	0.2	RANDOM	0	0.859636916616637	0	0	0	NONE	678.0	1
456.4072265625	0.2	COHERENT	1	0.989391353587962	0	0	0	RIGHT	681.0	1
458.046875	0.2	COHERENT	1	0.83809604588987	0	0	0	RIGHT	684.0	1
459.6767578125	0.2	COHERENT	1	0.859821947637101	0	0	180	LEFT	687.0	1
461.3466796875	0.2	COHERENT	1	0.789705151710223	0	0	0	RIGHT	690.0	1
462.7763671875	0.2	COHERENT	1	0.688335620312955	0	0	180	LEFT	694.0	1
464.33642578125	0.2	COHERENT	1	0.629368980832623	0	0	180	LEFT	697.0	1
465.7861328125	0.2	RANDOM	0	0.614120674032165	0	0	0	NONE	701.0	1
467.06640625	0.2	RANDOM	0	0.772904153930995	0	0	0	NONE	705.0	1
468.75634765625	0.2	COHERENT	1	0.769687692992193	0	0	180	LEFT	708.0	1
470.23583984375	0.2	COHERENT	1	0.694382784206937	0	0	0	RIGHT	712.0	1
471.7060546875	0.2	COHERENT	1	0.854378172014094	0	0	180	LEFT	716.0	1
473.32568359375	0.2	COHERENT	1	0.709172286518424	0	0	0	RIGHT	719.0	1
474.755859375	0.2	RANDOM	0	0.704685963420161	0	0	0	NONE	723.0	1
476.25537109375	0.2	RANDOM	0	0.719828624449747	0	0	0	NONE	727.0	1
477.67529296875	0.2	COHERENT	1	0.977495941693178	0	0	0	RIGHT	731.0	1
479.455078125	0.2	COHERENT	1	0.749381972243555	0	0	0	RIGHT	734.0	1
480.96533203125	0.2	COHERENT	1	n/a	0	1	0	RIGHT	737.0	0
482.5751953125	0.2	COHERENT	1	0.909665018391479	0	0	0	RIGHT	740.0	1
484.1650390625	0.2	COHERENT	1	0.91376015029482	0	0	180	LEFT	743.0	1
485.86474609375	0.2	RANDOM	0	0.674489987497964	0	0	0	NONE	746.0	1
487.16455078125	0.2	RANDOM	0	0.673385234584657	0	0	0	NONE	750.0	1
488.46484375	0.2	RANDOM	0	0.813197148892414	0	0	0	NONE	754.0	1
490.154296875	0.2	COHERENT	1	0.69395476791442	0	0	180	LEFT	757.0	1
491.474609375	0.2	RANDOM	0	0.72280723148333	0	0	0	NONE	761.0	1
492.82421875	0.2	RANDOM	0	0.812537919285205	0	0	0	NONE	765.0	1
494.333984375	0.2	COHERENT	1	0.698441996547899	0	0	0	RIGHT	768.0	1
495.64404296875	0.2	COHERENT	1	0.71860313351408	0	0	180	LEFT	772.0	1
497.173828125	0.2	COHERENT	1	0.794124767051017	0	0	0	RIGHT	775.0	1
498.84375	0.2	RANDOM	0	0.584942821490586	0	0	0	NONE	778.0	1
500.06396484375	0.2	COHERENT	1	1.05364933693727	0	0	0	RIGHT	782.0	1
501.86376953125	0.2	COHERENT	1	0.659419769282067	0	0	180	LEFT	784.0	1
503.24365234375	0.2	RANDOM	0	0.624448604540248	0	0	0	NONE	788.0	1
504.58349609375	0.2	RANDOM	0	0.718022987311997	0	0	0	NONE	792.0	1
506.193359375	0.2	RANDOM	0	0.699960880880099	0	0	0	NONE	795.0	1
507.6630859375	0.2	COHERENT	1	0.664852376637555	0	0	0	RIGHT	799.0	1
509.05322265625	0.2	RANDOM	0	0.674375286375835	0	0	0	NONE	803.0	1
510.43310546875	0.2	RANDOM	0	n/a	0	1	0	NONE	807.0	0
512.1328125	0.2	COHERENT	1	0.624050470908514	0	0	180	LEFT	810.0	1
513.48291015625	0.2	RANDOM	0	0.645134348217198	0	0	0	NONE	814.0	1
514.9326171875	0.2	COHERENT	1	0.789827700803926	0	0	0	RIGHT	818.0	1
516.40234375	0.2	RANDOM	0	0.822688364899022	0	0	0	NONE	822.0	1
518.12255859375	0.2	RANDOM	0	0.87935585057221	0	0	0	NONE	825.0	1
519.67236328125	0.2	COHERENT	1	0.633281194630399	0	0	0	RIGHT	828.0	1
521.1123046875	0.2	RANDOM	0	0.499074543051847	0	0	0	NONE	832.0	1
522.4619140625	0.2	COHERENT	1	0.440086170727227	0	0	180	LEFT	836.0	1
523.64208984375	0.2	RANDOM	0	0.54967283014139	0	0	0	NONE	840.0	1
524.94189453125	0.2	RANDOM	0	0.569657689593441	0	0	0	NONE	844.0	1
526.3115234375	0.2	RANDOM	0	0.48928661335276	0	0	0	NONE	848.0	1
527.71142578125	0.2	RANDOM	0	0.489014952800517	0	0	0	NONE	852.0	1
529.00146484375	0.2	COHERENT	1	0.610184916319213	0	0	0	RIGHT	856.0	1
530.46142578125	0.2	RANDOM	0	0.54997648626977	0	0	0	NONE	860.0	1
531.78125	0.2	COHERENT	1	0.514501843971175	0	0	0	RIGHT	864.0	1
532.951171875	0.2	RANDOM	0	0.53859692757942	0	0	0	NONE	868.0	1
534.13134765625	0.2	RANDOM	0	0.54835889860351	0	0	0	NONE	872.0	1
535.5908203125	0.2	COHERENT	1	0.750174013676315	0	0	180	LEFT	876.0	1
537.1708984375	0.2	COHERENT	1	n/a	0	1	180	LEFT	879.0	0
538.6708984375	0.2	COHERENT	1	n/a	0	1	180	LEFT	883.0	0
540.0205078125	0.2	COHERENT	1	n/a	0	1	180	LEFT	887.0	0
541.79052734375	0.2	COHERENT	1	0.734429775445278	0	0	0	RIGHT	890.0	1
543.34033203125	0.2	RANDOM	0	0.714100812627294	0	0	0	NONE	893.0	1
544.6904296875	0.2	RANDOM	0	n/a	0	1	0	NONE	897.0	0
546.56005859375	0.2	COHERENT	1	0.853735845730625	0	0	0	RIGHT	898.0	1
548.2802734375	0.2	RANDOM	0	0.844593260765578	0	0	0	NONE	901.0	1
549.830078125	0.2	COHERENT	1	0.848080778567237	0	0	0	RIGHT	904.0	1
591.56689453125	0.2	COHERENT	1	0.929633578210542	0	0	180	LEFT	906.0	1
593.146484375	0.2	RANDOM	0	0.957411171526928	0	0	0	NONE	909.0	1
594.8466796875	0.2	COHERENT	1	0.709610565542789	0	0	180	LEFT	912.0	1
596.16650390625	0.2	COHERENT	1	0.638334684592792	0	0	0	RIGHT	916.0	1
597.4462890625	0.2	RANDOM	0	0.768272341515058	0	0	0	NONE	920.0	1
599.06640625	0.2	COHERENT	1	0.689073027789618	0	0	180	LEFT	923.0	1
600.6162109375	0.2	COHERENT	1	0.769998291556931	0	0	0	RIGHT	926.0	1
602.005859375	0.2	COHERENT	1	0.802646758576429	0	0	0	RIGHT	930.0	1
603.6357421875	0.2	RANDOM	0	0.834394519942634	0	0	0	NONE	933.0	1
605.17578125	0.2	RANDOM	0	0.978048016304456	0	0	0	NONE	936.0	1
606.95556640625	0.2	RANDOM	0	0.858926373349732	0	0	0	NONE	939.0	1
608.5556640625	0.2	COHERENT	1	0.700830798337847	0	0	0	RIGHT	942.0	1
610.09521484375	0.2	RANDOM	0	0.724646977112116	0	0	0	NONE	945.0	1
611.51513671875	0.2	COHERENT	1	0.658365424493695	0	0	180	LEFT	949.0	1
612.79541015625	0.2	RANDOM	0	0.822950064564338	0	0	0	NONE	953.0	1
614.53515625	0.2	RANDOM	0	0.690122543056987	0	0	0	NONE	956.0	1
615.81494140625	0.2	COHERENT	1	0.637868333978076	0	0	0	RIGHT	960.0	1
617.3447265625	0.2	COHERENT	1	0.549828280346446	0	0	180	LEFT	963.0	1
618.5048828125	0.2	COHERENT	1	0.658354558072006	0	0	180	LEFT	967.0	1
619.83447265625	0.2	RANDOM	0	0.552468217224487	0	0	0	NONE	971.0	1
621.16455078125	0.2	RANDOM	0	0.644163916354955	0	0	0	NONE	975.0	1
622.474609375	0.2	COHERENT	1	0.658093462096531	0	0	0	RIGHT	979.0	1
623.7744140625	0.2	RANDOM	0	0.727883359825228	0	0	0	NONE	983.0	1
625.25439453125	0.2	RANDOM	0	0.759660702007295	0	0	0	NONE	987.0	1
626.75439453125	0.2	COHERENT	1	0.499616656776197	0	0	180	LEFT	991.0	1
628.10400390625	0.2	COHERENT	1	0.539363010337183	0	0	0	RIGHT	995.0	1
n/a	0.2	RANDOM	0	0.797931938769125	1	0	0	NONE	n/a	1
630.7236328125	0.2	COHERENT	1	0.672911941533584	0	0	0	RIGHT	999.0	1
632.173828125	0.2	COHERENT	1	0.554877242633211	0	0	0	RIGHT	1003.0	1
633.5634765625	0.2	COHERENT	1	0.533571509206922	0	0	0	RIGHT	1007.0	1
634.763671875	0.2	COHERENT	1	0.513487040886048	0	0	180	LEFT	1011.0	1
636.03369140625	0.2	COHERENT	1	0.599343245522959	0	0	180	LEFT	1015.0	1
637.533203125	0.2	COHERENT	1	0.659069629014539	0	0	0	RIGHT	1019.0	1
638.80322265625	0.2	RANDOM	0	0.798024001511749	0	0	0	NONE	1023.0	1
640.48291015625	0.2	COHERENT	1	0.759717448877836	0	0	180	LEFT	1026.0	1
642.05322265625	0.2	RANDOM	0	0.699554899277246	0	0	0	NONE	1029.0	1
643.5029296875	0.2	RANDOM	0	0.87937788526142	0	0	0	NONE	1033.0	1
645.1025390625	0.2	RANDOM	0	0.844090990588938	0	0	0	NONE	1036.0	1
646.65283203125	0.2	COHERENT	1	0.718061925324946	0	0	0	RIGHT	1039.0	1
648.04248046875	0.2	RANDOM	0	0.782825800991304	0	0	0	NONE	1043.0	1
649.5224609375	0.2	RANDOM	0	0.718571741627784	0	0	0	NONE	1047.0	1
650.97216796875	0.2	COHERENT	1	0.614149047467436	0	0	180	LEFT	1051.0	1
652.21240234375	0.2	COHERENT	1	0.643006038711974	0	0	180	LEFT	1055.0	1
653.59228515625	0.2	COHERENT	1	0.663945634082665	0	0	0	RIGHT	1059.0	1
654.98193359375	0.2	COHERENT	1	0.584545895238989	0	0	180	LEFT	1063.0	1
656.2119140625	0.2	RANDOM	0	0.578627015494931	0	0	0	NONE	1067.0	1
657.70166015625	0.2	COHERENT	1	0.949504642075226	0	0	0	RIGHT	1071.0	1
659.3115234375	0.2	RANDOM	0	0.693298858602702	0	0	0	NONE	1074.0	1
660.86181640625	0.2	RANDOM	0	0.839032671105542	0	0	0	NONE	1077.0	1
662.45166015625	0.2	COHERENT	1	0.709860191405824	0	0	180	LEFT	1080.0	1
663.93115234375	0.2	RANDOM	0	0.804767521955	0	0	0	NONE	1084.0	1
665.39111328125	0.2	COHERENT	1	0.588530853696284	0	0	180	LEFT	1088.0	1
666.6513671875	0.2	COHERENT	1	0.643167223973251	0	0	0	RIGHT	1092.0	1
668.201171875	0.2	RANDOM	0	0.528991312295602	0	0	0	NONE	1095.0	1
669.470703125	0.2	RANDOM	0	0.640293960865165	0	0	0	NONE	1099.0	1
670.8408203125	0.2	COHERENT	1	0.634799475272303	0	0	0	RIGHT	1103.0	1
672.16064453125	0.2	COHERENT	1	0.963620426216949	0	0	0	RIGHT	1107.0	1
673.99072265625	0.2	RANDOM	0	0.844230443005927	0	0	0	NONE	1110.0	1
675.66064453125	0.2	RANDOM	0	0.693121977399187	0	0	0	NONE	1113.0	1
677.18017578125	0.2	COHERENT	1	0.594071521582919	0	0	180	LEFT	1116.0	1
678.48046875	0.2	COHERENT	1	0.597856658611818	0	0	0	RIGHT	1120.0	1
679.7802734375	0.2	COHERENT	1	0.457733240204107	0	0	180	LEFT	1124.0	1
681.02001953125	0.2	COHERENT	1	0.504440744494786	0	0	0	RIGHT	1128.0	1
682.169921875	0.2	COHERENT	1	0.568330778718064	0	0	0	RIGHT	1132.0	1
683.52001953125	0.2	RANDOM	0	n/a	0	1	0	NONE	1136.0	0
685.44970703125	0.2	COHERENT	1	0.529536444470523	0	0	180	LEFT	1137.0	1
686.61962890625	0.2	COHERENT	1	0.563714360399445	0	0	0	RIGHT	1141.0	1
688.0693359375	0.2	RANDOM	0	0.559234979737084	0	0	0	NONE	1145.0	1
689.3193359375	0.2	COHERENT	1	0.553924015940083	0	0	0	RIGHT	1149.0	1
690.58935546875	0.2	RANDOM	0	0.523135216323226	0	0	0	NONE	1153.0	1
691.83935546875	0.2	RANDOM	0	0.534010090076663	0	0	0	NONE	1157.0	1
693.1591796875	0.2	RANDOM	0	0.465030344483694	0	0	0	NONE	1161.0	1
694.2890625	0.2	COHERENT	1	0.582788855156195	0	0	0	RIGHT	1165.0	1
695.77880859375	0.2	RANDOM	0	0.579562131485091	0	0	0	NONE	1169.0	1
697.10888671875	0.2	COHERENT	1	0.559423029208119	0	0	180	LEFT	1173.0	1
698.30859375	0.2	COHERENT	1	0.498153613779778	0	0	180	LEFT	1177.0	1
699.69873046875	0.2	COHERENT	1	0.624123819257875	0	0	0	RIGHT	1181.0	1
701.04833984375	0.2	COHERENT	1	0.535239203153196	0	0	180	LEFT	1185.0	1
702.37841796875	0.2	RANDOM	0	0.608817860051204	0	0	0	NONE	1189.0	1
703.818359375	0.2	RANDOM	0	0.584600529194631	0	0	0	NONE	1193.0	1
705.16845703125	0.2	COHERENT	1	0.544234185884306	0	0	180	LEFT	1197.0	1
706.587890625	0.2	RANDOM	0	0.574008786106333	0	0	0	NONE	1201.0	1
707.98779296875	0.2	RANDOM	0	0.53391561257331	0	0	0	NONE	1205.0	1
709.2177734375	0.2	RANDOM	0	0.589520301796711	0	0	0	NONE	1209.0	1
710.53759765625	0.2	COHERENT	1	0.493817005829897	0	0	180	LEFT	1213.0	1
711.7578125	0.2	COHERENT	1	0.454471502506294	0	0	0	RIGHT	1217.0	1
712.9375	0.2	COHERENT	1	0.524290075515637	0	0	0	RIGHT	1221.0	1
714.2373046875	0.2	RANDOM	0	0.434280482879785	0	0	0	NONE	1225.0	1
715.45751953125	0.2	COHERENT	1	0.473937188458422	0	0	180	LEFT	1229.0	1
716.5771484375	0.2	RANDOM	0	0.628059275124997	0	0	0	NONE	1233.0	1
717.87744140625	0.2	COHERENT	1	0.402724091280106	0	0	180	LEFT	1237.0	1
718.89697265625	0.2	RANDOM	0	0.488710692982295	0	0	0	NONE	1241.0	1
720.046875	0.2	COHERENT	1	0.483594117401935	0	0	0	RIGHT	1245.0	1
721.17724609375	0.2	RANDOM	0	0.458338137700594	0	0	0	NONE	1249.0	1
722.27685546875	0.2	RANDOM	0	0.533187864138199	0	0	0	NONE	1253.0	1
723.4267578125	0.2	RANDOM	0	0.473104397942734	0	0	0	NONE	1257.0	1
724.796875	0.2	RANDOM	0	0.469898199735326	0	0	0	NONE	1261.0	1
725.99658203125	0.2	RANDOM	0	0.474677916230576	0	0	0	NONE	1265.0	1
727.3466796875	0.2	COHERENT	1	0.694597094197889	0	0	0	RIGHT	1269.0	1
728.75634765625	0.2	COHERENT	1	0.618891938865545	0	0	180	LEFT	1273.0	1
730.13623046875	0.2	COHERENT	1	n/a	0	1	180	LEFT	1277.0	0
731.63623046875	0.2	COHERENT	1	0.639021080255134	0	0	0	RIGHT	1281.0	1
733.1259765625	0.2	RANDOM	0	0.460497235400908	0	0	0	NONE	1285.0	1
734.38623046875	0.2	RANDOM	0	0.56871321640665	0	0	0	NONE	1289.0	1
735.6259765625	0.2	RANDOM	0	0.503568110431843	0	0	0	NONE	1293.0	1
737.005859375	0.2	COHERENT	1	0.604341497839869	0	0	180	LEFT	1297.0	1
738.3056640625	0.2	RANDOM	0	0.73807878035268	0	0	0	NONE	1301.0	1
739.65576171875	0.2	RANDOM	0	0.528055894460522	0	0	0	NONE	1305.0	1
n/a	0.2	RANDOM	0	n/a	1	1	0	NONE	n/a	0
742.62548828125	0.2	COHERENT	1	0.538496715019846	0	0	0	RIGHT	1307.0	1
743.9853515625	0.2	RANDOM	0	0.499464526866632	0	0	0	NONE	1311.0	1
745.18505859375	0.2	COHERENT	1	0.458204420339825	0	0	0	RIGHT	1315.0	1
746.31494140625	0.2	RANDOM	0	0.442966678117045	0	0	0	NONE	1319.0	1
747.59521484375	0.2	COHERENT	1	0.589897608119372	0	0	180	LEFT	1323.0	1
749.0546875	0.2	RANDOM	0	0.499809233923315	0	0	0	NONE	1327.0	1
750.20458984375	0.2	RANDOM	0	0.538230487678902	0	0	0	NONE	1331.0	1
751.5546875	0.2	RANDOM	0	0.464496682421213	0	0	0	NONE	1335.0	1
752.9248046875	0.2	COHERENT	1	0.449323836885014	0	0	180	LEFT	1339.0	1
753.974609375	0.2	RANDOM	0	0.508068016558354	0	0	0	NONE	1343.0	1
755.33447265625	0.2	RANDOM	0	0.408934251505798	0	0	0	NONE	1347.0	1
756.39453125	0.2	COHERENT	1	0.517837835553564	0	0	0	RIGHT	1351.0	1
757.50439453125	0.2	RANDOM	0	0.49873043968546	0	0	0	NONE	1355.0	1
758.84423828125	0.2	RANDOM	0	0.444472583111747	0	0	0	NONE	1359.0	1
760.01416015625	0.2	RANDOM	0	0.454310015400097	0	0	0	NONE	1363.0	1
761.2138671875	0.2	COHERENT	1	0.459311286168031	0	0	180	LEFT	1367.0	1
762.44384765625	0.2	COHERENT	1	n/a	0	1	180	LEFT	1371.0	0
763.7138671875	0.2	COHERENT	1	n/a	0	1	180	LEFT	1375.0	0
765.1337890625	0.2	RANDOM	0	0.524808343480345	0	0	0	NONE	1379.0	1
766.3837890625	0.2	COHERENT	1	0.454612765993261	0	0	180	LEFT	1383.0	1
767.6435546875	0.2	RANDOM	0	0.589288786637098	0	0	0	NONE	1387.0	1
768.88330078125	0.2	COHERENT	1	0.468140555962236	0	0	0	RIGHT	1391.0	1
770.103515625	0.2	RANDOM	0	0.549187463288035	0	0	0	NONE	1395.0	1
771.35302734375	0.2	RANDOM	0	0.567997843619196	0	0	0	NONE	1399.0	1
772.52294921875	0.2	RANDOM	0	0.687766340533017	0	0	0	NONE	1403.0	1
773.873046875	0.2	RANDOM	0	0.608483113881903	0	0	0	NONE	1407.0	1
775.373046875	0.2	COHERENT	1	0.389400046725768	0	0	180	LEFT	1411.0	1
776.392578125	0.2	COHERENT	1	0.613925983969693	0	0	0	RIGHT	1415.0	1
777.87255859375	0.2	COHERENT	1	0.493043376945934	0	0	0	RIGHT	1419.0	1
779.24267578125	0.2	COHERENT	1	0.524561132378039	0	0	0	RIGHT	1423.0	1
780.67236328125	0.2	RANDOM	0	0.459730247108382	0	0	0	NONE	1427.0	1
781.72265625	0.2	COHERENT	1	0.608471945614838	0	0	180	LEFT	1431.0	1
783.2421875	0.2	RANDOM	0	0.529289233367763	0	0	0	NONE	1434.0	1
784.59228515625	0.2	COHERENT	1	0.96423347352993	0	0	0	RIGHT	1438.0	1
786.23193359375	0.2	RANDOM	0	0.622802341593342	0	0	0	NONE	1441.0	1
787.7119140625	0.2	RANDOM	0	0.650053215283606	0	0	0	NONE	1445.0	1
789.08203125	0.2	COHERENT	1	0.534637927797576	0	0	180	LEFT	1449.0	1
790.3017578125	0.2	RANDOM	0	0.523576211953241	0	0	0	NONE	1453.0	1
791.45166015625	0.2	COHERENT	1	0.563363012751779	0	0	180	LEFT	1457.0	1
792.771484375	0.2	RANDOM	0	0.549295523819183	0	0	0	NONE	1461.0	1
794.021484375	0.2	RANDOM	0	0.57801698663252	0	0	0	NONE	1465.0	1
n/a	0.2	RANDOM	0	0.608266690975142	1	0	0	NONE	n/a	1
822.369140625	0.2	COHERENT	1	0.469217237284738	0	0	180	LEFT	1469.0	1
823.689453125	0.2	RANDOM	0	0.439652117534024	0	0	0	NONE	1473.0	1
825.00927734375	0.2	RANDOM	0	0.492831481714802	0	0	0	NONE	1477.0	1
826.17919921875	0.2	COHERENT	1	0.582991695035162	0	0	0	RIGHT	1481.0	1
827.4287109375	0.2	COHERENT	1	0.547774526571175	0	0	180	LEFT	1485.0	1
828.8486328125	0.2	RANDOM	0	0.464584217487754	0	0	0	NONE	1489.0	1
829.90869140625	0.2	RANDOM	0	0.648457058616259	0	0	0	NONE	1493.0	1
831.2685546875	0.2	RANDOM	0	0.588318958465607	0	0	0	NONE	1497.0	1
832.478515625	0.2	COHERENT	1	0.55301485862492	0	0	0	RIGHT	1501.0	1
833.6787109375	0.2	COHERENT	1	0.658005021494318	0	0	0	RIGHT	1505.0	1
835.1884765625	0.2	RANDOM	0	0.48979461858562	0	0	0	NONE	1508.0	1
836.38818359375	0.2	COHERENT	1	0.618319338790116	0	0	180	LEFT	1512.0	1
837.79833984375	0.2	RANDOM	0	0.589504605853563	0	0	0	NONE	1516.0	1
839.087890625	0.2	COHERENT	1	0.588390495744079	0	0	0	RIGHT	1520.0	1
840.51806640625	0.2	RANDOM	0	0.639046435240289	0	0	0	NONE	1524.0	1
841.76806640625	0.2	RANDOM	0	0.787708144805947	0	0	0	NONE	1528.0	1
843.18798828125	0.2	COHERENT	1	0.553987101556686	0	0	0	RIGHT	1532.0	1
844.53759765625	0.2	COHERENT	1	0.679568530600136	0	0	0	RIGHT	1536.0	1
845.8876953125	0.2	RANDOM	0	0.503523437363128	0	0	0	NONE	1540.0	1
847.24755859375	0.2	RANDOM	0	0.660601492684236	0	0	0	NONE	1544.0	1
848.62744140625	0.2	COHERENT	1	0.543134262492913	0	0	0	RIGHT	1548.0	1
n/a	0.2	RANDOM	0	0.607868859188784	1	0	0	NONE	n/a	1
851.26708984375	0.2	COHERENT	1	0.67476859048611	0	0	0	RIGHT	1552.0	1
852.626953125	0.2	COHERENT	1	0.728549230023418	0	0	180	LEFT	1556.0	1
853.966796875	0.2	COHERENT	1	0.708309613342408	0	0	180	LEFT	1560.0	1
855.5869140625	0.2	RANDOM	0	0.559108204812674	0	0	0	NONE	1563.0	1
856.78662109375	0.2	COHERENT	1	0.577834974062625	0	0	180	LEFT	1567.0	1
858.08642578125	0.2	COHERENT	1	0.554893240421734	0	0	0	RIGHT	1571.0	1
859.40673828125	0.2	COHERENT	1	0.560699230113642	0	0	180	LEFT	1575.0	1
860.65625	0.2	COHERENT	1	0.60858000614553	0	0	0	RIGHT	1579.0	1
861.9365234375	0.2	COHERENT	1	0.493034321594223	0	0	180	LEFT	1583.0	1
863.30615234375	0.2	COHERENT	1	0.614230545632836	0	0	0	RIGHT	1587.0	1
864.65625	0.2	RANDOM	0	0.535046927850999	0	0	0	NONE	1591.0	1
865.85595703125	0.2	COHERENT	1	0.622404207961608	0	0	0	RIGHT	1595.0	1
867.255859375	0.2	RANDOM	0	0.564736105921384	0	0	0	NONE	1599.0	1
868.7255859375	0.2	RANDOM	0	0.479543054877468	0	0	0	NONE	1603.0	1
870.005859375	0.2	COHERENT	1	0.568956201678702	0	0	0	RIGHT	1607.0	1
871.42578125	0.2	COHERENT	1	0.429217635719851	0	0	180	LEFT	1611.0	1
872.57568359375	0.2	COHERENT	1	0.505031455273638	0	0	180	LEFT	1615.0	1
873.8251953125	0.2	COHERENT	1	0.449826408907029	0	0	180	LEFT	1619.0	1
875.13525390625	0.2	RANDOM	0	0.510188176246174	0	0	0	NONE	1623.0	1
876.4951171875	0.2	RANDOM	0	0.668581068640378	0	0	0	NONE	1627.0	1
878.03515625	0.2	COHERENT	1	0.464279957669078	0	0	0	RIGHT	1630.0	1
879.15478515625	0.2	COHERENT	1	0.508839532526508	0	0	0	RIGHT	1634.0	1
880.31494140625	0.2	COHERENT	1	0.626989234394387	0	0	0	RIGHT	1638.0	1
881.6650390625	0.2	RANDOM	0	0.484814175126758	0	0	0	NONE	1642.0	1
882.87451171875	0.2	COHERENT	1	0.464756269170721	0	0	180	LEFT	1646.0	1
884.0244140625	0.2	COHERENT	1	0.431977103241024	0	0	180	LEFT	1650.0	1
885.3544921875	0.2	RANDOM	0	0.448414075880464	0	0	0	NONE	1654.0	1
886.6044921875	0.2	COHERENT	1	0.429255668197129	0	0	0	RIGHT	1658.0	1
887.89453125	0.2	RANDOM	0	0.47905014189746	0	0	0	NONE	1662.0	1
889.14404296875	0.2	RANDOM	0	0.604942169505193	0	0	0	NONE	1666.0	1
890.34423828125	0.2	RANDOM	0	0.60776260972807	0	0	0	NONE	1670.0	1
891.72412109375	0.2	RANDOM	0	0.534554014871446	0	0	0	NONE	1674.0	1
893.09375	0.2	RANDOM	0	0.454006962961557	0	0	0	NONE	1678.0	1
894.36376953125	0.2	RANDOM	0	0.424335291905663	0	0	0	NONE	1682.0	1
895.66357421875	0.2	RANDOM	0	0.544837272310815	0	0	0	NONE	1686.0	1
896.93359375	0.2	COHERENT	1	0.494817018507547	0	0	180	LEFT	1690.0	1
898.08349609375	0.2	RANDOM	0	0.627674724521057	0	0	0	NONE	1694.0	1
899.3134765625	0.2	COHERENT	1	n/a	0	1	180	LEFT	1698.0	0
900.783203125	0.2	RANDOM	0	0.499330809505864	0	0	0	NONE	1702.0	1
901.93310546875	0.2	RANDOM	0	0.448223309803325	0	0	0	NONE	1706.0	1
903.123046875	0.2	RANDOM	0	0.493870130560026	0	0	0	NONE	1710.0	1
904.35302734375	0.2	COHERENT	1	0.549869331274294	0	0	0	RIGHT	1714.0	1
905.703125	0.2	COHERENT	1	0.599762508308231	0	0	0	RIGHT	1718.0	1
907.10302734375	0.2	RANDOM	0	0.439684414955082	0	0	0	NONE	1722.0	1
908.35302734375	0.2	RANDOM	0	0.489297781619825	0	0	0	NONE	1726.0	1
909.44287109375	0.2	RANDOM	0	0.648150987727604	0	0	0	NONE	1730.0	1
910.96240234375	0.2	RANDOM	0	0.514040322877918	0	0	0	NONE	1733.0	1
912.2626953125	0.2	RANDOM	0	0.514991436655691	0	0	0	NONE	1737.0	1
913.54248046875	0.2	COHERENT	1	0.494521210350285	0	0	180	LEFT	1741.0	1
914.662109375	0.2	RANDOM	0	0.633425476567936	0	0	0	NONE	1745.0	1
915.89208984375	0.2	COHERENT	1	0.588409210137797	0	0	0	RIGHT	1749.0	1
917.2919921875	0.2	RANDOM	0	0.549271074369244	0	0	0	NONE	1753.0	1
918.4521484375	0.2	COHERENT	1	0.48803697481253	0	0	180	LEFT	1757.0	1
919.61181640625	0.2	RANDOM	0	0.62298073202237	0	0	0	NONE	1761.0	1
920.98193359375	0.2	COHERENT	1	0.460611030988275	0	0	180	LEFT	1765.0	1
922.2216796875	0.2	RANDOM	0	0.514971514881836	0	0	0	NONE	1769.0	1
923.50146484375	0.2	RANDOM	0	n/a	0	1	0	NONE	1773.0	0
924.9716796875	0.2	COHERENT	1	0.434044741889011	0	0	180	LEFT	1777.0	1
926.25146484375	0.2	RANDOM	0	0.528959316719465	0	0	0	NONE	1781.0	1
927.4912109375	0.2	RANDOM	0	0.687834859361374	0	0	0	NONE	1785.0	1
929.041015625	0.2	RANDOM	0	0.644687315686042	0	0	0	NONE	1788.0	1
930.291015625	0.2	COHERENT	1	0.648553045345125	0	0	180	LEFT	1792.0	1
931.61083984375	0.2	COHERENT	1	0.713172337228571	0	0	0	RIGHT	1796.0	1
932.9609375	0.2	RANDOM	0	0.703259745520427	0	0	0	NONE	1800.0	1
934.31103515625	0.2	COHERENT	1	0.728055411508194	0	0	0	RIGHT	1804.0	1
935.810546875	0.2	COHERENT	1	0.454892576361999	0	0	180	LEFT	1808.0	1
937.060546875	0.2	COHERENT	1	0.489463796402106	0	0	180	LEFT	1812.0	1
938.28076171875	0.2	RANDOM	0	0.625116889498713	0	0	0	NONE	1816.0	1
939.76025390625	0.2	RANDOM	0	0.768320938569104	0	0	0	NONE	1820.0	1
941.25048828125	0.2	COHERENT	1	0.63403429805021	0	0	0	RIGHT	1824.0	1
942.72021484375	0.2	COHERENT	1	0.774992016198212	0	0	180	LEFT	1828.0	1
944.080078125	0.2	COHERENT	1	0.767804179829909	0	0	0	RIGHT	1832.0	1
945.64013671875	0.2	COHERENT	1	0.664761521274613	0	0	180	LEFT	1835.0	1
947.02001953125	0.2	RANDOM	0	0.924273413668288	0	0	0	NONE	1839.0	1
948.849609375	0.2	RANDOM	0	0.979099644487178	0	0	0	NONE	1842.0	1
950.61962890625	0.2	COHERENT	1	0.829994524530775	0	0	0	RIGHT	1845.0	1
952.3095703125	0.2	RANDOM	0	0.779395030060641	0	0	0	NONE	1848.0	1
953.78955078125	0.2	COHERENT	1	0.868497578297138	0	0	0	RIGHT	1852.0	1
955.55908203125	0.2	COHERENT	1	0.66927289751311	0	0	180	LEFT	1855.0	1
n/a	0.2	RANDOM	0	n/a	1	1	0	NONE	n/a	0
958.62890625	0.2	RANDOM	0	0.824936205046924	0	0	0	NONE	1858.0	1
960.1787109375	0.2	RANDOM	0	0.784687883154675	0	0	0	NONE	1861.0	1
961.71875	0.2	COHERENT	1	0.659472290321446	0	0	180	LEFT	1864.0	1
963.19873046875	0.2	COHERENT	1	0.714255357297134	0	0	180	LEFT	1868.0	1
964.568359375	0.2	RANDOM	0	0.747970846596672	0	0	0	NONE	1872.0	1
966.0986328125	0.2	COHERENT	1	0.760037706484582	0	0	180	LEFT	1875.0	1
967.63818359375	0.2	COHERENT	1	0.644761569570164	0	0	0	RIGHT	1878.0	1
969.18798828125	0.2	RANDOM	0	0.659395017986753	0	0	0	NONE	1881.0	1
970.4580078125	0.2	RANDOM	0	0.708180423657723	0	0	0	NONE	1885.0	1
971.93798828125	0.2	RANDOM	0	0.853916952765758	0	0	0	NONE	1889.0	1
973.5576171875	0.2	RANDOM	0	0.814965055397806	0	0	0	NONE	1892.0	1
975.02783203125	0.2	RANDOM	0	0.857780569509032	0	0	0	NONE	1896.0	1
976.5576171875	0.2	RANDOM	0	0.913525314839717	0	0	0	NONE	1899.0	1
978.37744140625	0.2	RANDOM	0	0.809350133627049	0	0	0	NONE	1902.0	1
979.95751953125	0.2	COHERENT	1	0.704179165567439	0	0	180	LEFT	1905.0	1
981.34716796875	0.2	COHERENT	1	0.592913945784858	0	0	0	RIGHT	1909.0	1
982.5673828125	0.2	COHERENT	1	0.663768752878696	0	0	0	RIGHT	1913.0	1
983.97705078125	0.2	COHERENT	1	0.599684632283243	0	0	180	LEFT	1917.0	1
985.43701171875	0.2	RANDOM	0	0.659483156744045	0	0	0	NONE	1921.0	1
986.716796875	0.2	RANDOM	0	0.803239884115555	0	0	0	NONE	1925.0	1
988.2666015625	0.2	RANDOM	0	0.769088228707005	0	0	0	NONE	1928.0	1
989.66650390625	0.2	RANDOM	0	0.712835779988836	0	0	0	NONE	1932.0	1
991.06640625	0.2	COHERENT	1	0.597774858601042	0	0	180	LEFT	1936.0	1
992.306640625	0.2	COHERENT	1	0.653699201740892	0	0	0	RIGHT	1940.0	1
993.7763671875	0.2	COHERENT	1	0.554408477257766	0	0	0	RIGHT	1944.0	1
995.0361328125	0.2	COHERENT	1	0.698202935262088	0	0	0	RIGHT	1948.0	1
996.4560546875	0.2	RANDOM	0	0.634104024258704	0	0	0	NONE	1952.0	1
997.74609375	0.2	COHERENT	1	0.587962781296937	0	0	0	RIGHT	1956.0	1
999.1259765625	0.2	RANDOM	0	0.539376895209898	0	0	0	NONE	1960.0	1
1000.5458984375	0.2	COHERENT	1	0.524483256352596	0	0	180	LEFT	1964.0	1
1001.67578125	0.2	COHERENT	1	0.638423427039925	0	0	0	RIGHT	1968.0	1
1003.015625	0.2	COHERENT	1	0.588221764357058	0	0	180	LEFT	1972.0	1
1004.3154296875	0.2	RANDOM	0	0.768061653664063	0	0	0	NONE	1976.0	1
1005.7353515625	0.2	RANDOM	0	0.897794659636475	0	0	0	NONE	1980.0	1
1007.51513671875	0.2	COHERENT	1	0.589717104774536	0	0	180	LEFT	1983.0	1
1008.96533203125	0.2	RANDOM	0	0.509438694966775	0	0	0	NONE	1987.0	1
1010.2548828125	0.2	COHERENT	1	0.56436634572492	0	0	0	RIGHT	1991.0	1
1011.4150390625	0.2	COHERENT	1	0.578108143839927	0	0	0	RIGHT	1995.0	1
1012.8349609375	0.2	RANDOM	0	1.04992517261007	0	0	0	NONE	1999.0	1
1014.53466796875	0.2	RANDOM	0	0.767771882408397	0	0	0	NONE	2001.0	1
1015.90478515625	0.2	COHERENT	1	0.628437486982875	0	0	0	RIGHT	2005.0	1
1017.4443359375	0.2	RANDOM	0	0.828285779656653	0	0	0	NONE	2008.0	1
1018.92431640625	0.2	COHERENT	1	0.528124413288879	0	0	180	LEFT	2012.0	1
1020.26416015625	0.2	COHERENT	1	0.488988088590304	0	0	180	LEFT	2016.0	1
1021.64404296875	0.2	COHERENT	1	0.599920373273562	0	0	180	LEFT	2020.0	1
1022.994140625	0.2	COHERENT	1	0.550860590445154	0	0	180	LEFT	2024.0	1
1024.39404296875	0.2	RANDOM	0	0.839304935348082	0	0	0	NONE	2028.0	1
