COND	DIREC	ACC	RT	nameCOND	nameDIREC	outliers	bad_trials
0	0	1	1.19035256119969	RANDOM	NONE	0	0
1	180	0	NaN	COHERENT	LEFT	1	0
1	180	0	NaN	COHERENT	LEFT	1	0
0	0	1	0.763804823568535	RANDOM	NONE	0	0
1	0	0	NaN	COHERENT	RIGHT	1	0
0	0	1	1.10930966826618	RANDOM	NONE	0	0
0	0	0	NaN	RANDOM	NONE	1	0
1	0	1	0.653695251893623	COHERENT	RIGHT	0	0
1	180	0	NaN	COHERENT	LEFT	1	0
0	0	1	1.044427238975	RANDOM	NONE	0	0
0	0	0	NaN	RANDOM	NONE	1	0
1	180	0	NaN	COHERENT	LEFT	1	0
0	0	1	0.858783241269521	RANDOM	NONE	0	0
0	0	0	NaN	RANDOM	NONE	1	0
1	0	1	0.669049775121493	COHERENT	RIGHT	0	0
0	0	1	0.750187449062651	RANDOM	NONE	0	0
0	0	1	1.04890488695673	RANDOM	NONE	0	0
0	0	1	1.07879923933706	RANDOM	NONE	0	0
0	0	0	NaN	RANDOM	NONE	1	0
0	0	0	NaN	RANDOM	NONE	1	0
1	0	1	0.590121947539046	COHERENT	RIGHT	0	0
0	0	0	NaN	RANDOM	NONE	1	0
0	0	1	0.764764707658287	RANDOM	NONE	0	0
0	0	1	0.814500890458476	RANDOM	NONE	0	0
1	180	1	0.629354945817795	COHERENT	LEFT	0	0
1	180	1	0.628167164720253	COHERENT	LEFT	0	0
1	0	1	0.628999667964308	COHERENT	RIGHT	0	0
0	0	1	0.853807842071546	RANDOM	NONE	0	0
0	0	0	NaN	RANDOM	NONE	1	0
1	0	1	0.778382987714394	COHERENT	RIGHT	0	0
1	0	1	0.723250022639149	COHERENT	RIGHT	0	0
0	0	1	0.533017597874277	RANDOM	NONE	0	0
1	180	1	0.659871109904088	COHERENT	LEFT	0	0
0	0	0	NaN	RANDOM	NONE	1	0
0	0	1	0.834383168825298	RANDOM	NONE	0	0
1	180	1	0.849205831748804	COHERENT	LEFT	0	0
0	0	0	NaN	RANDOM	NONE	1	0
1	0	1	0.994813305562275	COHERENT	RIGHT	0	0
0	0	1	0.742593196293456	RANDOM	NONE	0	0
1	0	1	0.794367774457896	COHERENT	RIGHT	0	0
1	0	1	0.774286878566272	COHERENT	RIGHT	0	0
1	180	0	NaN	COHERENT	LEFT	1	0
0	0	0	NaN	RANDOM	NONE	1	0
0	0	1	0.974343022729954	RANDOM	NONE	0	0
1	0	0	NaN	COHERENT	RIGHT	1	0
0	0	1	1.03314045096431	RANDOM	NONE	0	0
1	0	1	0.808692384315691	COHERENT	RIGHT	0	0
0	0	0	NaN	RANDOM	NONE	1	0
1	0	1	0.833268737359504	COHERENT	RIGHT	0	0
0	0	1	0.594301367382286	RANDOM	NONE	0	0
1	180	1	0.819078149052984	COHERENT	LEFT	0	0
1	180	1	0.90785988107109	COHERENT	LEFT	0	0
0	0	1	0.899619668568448	RANDOM	NONE	0	0
0	0	1	0.769528509764314	RANDOM	NONE	0	0
0	0	1	0.95331824081677	RANDOM	NONE	0	0
0	0	1	0.938116755712144	RANDOM	NONE	0	0
1	0	1	0.659744030909678	COHERENT	RIGHT	0	0
0	0	1	1.0886054514167	RANDOM	NONE	0	0
1	0	0	NaN	COHERENT	RIGHT	1	0
0	0	0	NaN	RANDOM	NONE	1	0
1	0	1	0.838076005916264	COHERENT	RIGHT	0	0
0	0	1	0.884815418515245	RANDOM	NONE	0	0
0	0	1	0.753619185607931	RANDOM	NONE	0	0
0	0	1	0.779539678227593	RANDOM	NONE	0	0
1	0	1	0.694320082103332	COHERENT	RIGHT	0	0
1	180	1	0.838110115005293	COHERENT	LEFT	0	0
1	0	1	0.744826586978888	COHERENT	RIGHT	0	0
0	0	1	1.19460110477212	RANDOM	NONE	0	0
0	0	1	0.994474931329023	RANDOM	NONE	0	0
1	0	1	0.788128527876324	COHERENT	RIGHT	0	0
1	0	0	NaN	COHERENT	RIGHT	1	0
1	180	1	0.774737239275964	COHERENT	LEFT	0	0
1	180	1	0.769562317002965	COHERENT	LEFT	0	0
1	180	0	NaN	COHERENT	LEFT	1	0
0	0	1	0.96806000784818	RANDOM	NONE	0	0
1	180	0	NaN	COHERENT	LEFT	1	0
1	180	1	0.774573636390414	COHERENT	LEFT	0	0
1	180	1	0.819340758852377	COHERENT	LEFT	0	0
1	180	1	0.809165383802792	COHERENT	LEFT	0	0
0	0	1	0.945038787768681	RANDOM	NONE	0	0
0	0	1	0.953387062693764	RANDOM	NONE	0	0
1	0	1	0.718614808777602	COHERENT	RIGHT	0	0
1	0	1	0.849332005192082	COHERENT	RIGHT	0	0
1	0	0	NaN	COHERENT	RIGHT	1	0
1	0	1	0.690017205469303	COHERENT	RIGHT	0	0
1	0	0	NaN	COHERENT	RIGHT	1	0
1	180	1	0.799160252347065	COHERENT	LEFT	0	0
0	0	1	0.905287512450741	RANDOM	NONE	0	0
1	180	1	0.728085363276477	COHERENT	LEFT	0	0
0	0	0	NaN	RANDOM	NONE	1	0
1	0	1	0.879586465031025	COHERENT	RIGHT	0	0
1	0	0	NaN	COHERENT	RIGHT	1	0
0	0	1	1.05426635274216	RANDOM	NONE	0	0
1	0	1	0.663061366174588	COHERENT	RIGHT	0	0
1	180	0	NaN	COHERENT	LEFT	1	0
0	0	1	0.849591898337167	RANDOM	NONE	0	0
0	0	1	0.819539980077934	RANDOM	NONE	0	0
0	0	1	0.928893114793027	RANDOM	NONE	0	0
0	0	1	0.789954722448783	RANDOM	NONE	0	0
0	0	1	0.814640345316548	RANDOM	NONE	0	0
0	0	1	0.924591445561418	RANDOM	NONE	0	0
0	0	1	0.745362975037096	RANDOM	NONE	0	0
1	180	1	0.649089317516882	COHERENT	LEFT	0	0
0	0	1	0.912914063207609	RANDOM	NONE	0	0
1	0	1	0.974764405807946	COHERENT	RIGHT	0	0
0	0	1	0.769207944700611	RANDOM	NONE	0	0
0	0	0	NaN	RANDOM	NONE	1	0
1	180	1	0.668107398351822	COHERENT	LEFT	0	0
1	0	1	0.727986356364454	COHERENT	RIGHT	0	0
1	0	1	0.785218992423324	COHERENT	RIGHT	0	0
0	0	1	0.667555012225421	RANDOM	NONE	0	0
1	0	1	0.854347550483908	COHERENT	RIGHT	0	0
0	0	1	0.894138971898428	RANDOM	NONE	0	0
1	180	1	0.804979926952001	COHERENT	LEFT	0	0
1	180	1	0.718747019227521	COHERENT	LEFT	0	0
1	0	0	NaN	COHERENT	RIGHT	1	0
1	180	1	0.75408373328446	COHERENT	LEFT	0	0
1	180	1	0.849852395182097	COHERENT	LEFT	0	0
1	0	0	NaN	COHERENT	RIGHT	1	0
1	180	1	0.694733918922793	COHERENT	LEFT	0	0
1	180	0	NaN	COHERENT	LEFT	1	0
1	180	1	0.738340426815739	COHERENT	LEFT	0	0
0	0	1	0.82410878686369	RANDOM	NONE	0	0
1	180	0	NaN	COHERENT	LEFT	1	0
0	0	1	0.657933532554125	RANDOM	NONE	0	0
1	180	0	NaN	COHERENT	LEFT	1	0
0	0	1	0.878372121102075	RANDOM	NONE	0	0
1	180	1	0.703256361495733	COHERENT	LEFT	0	0
1	0	1	0.689960759455971	COHERENT	RIGHT	0	0
0	0	1	0.737934739956472	RANDOM	NONE	0	0
0	0	1	0.669579824322682	RANDOM	NONE	0	0
1	0	0	NaN	COHERENT	RIGHT	1	0
0	0	1	0.874252769477607	RANDOM	NONE	0	0
0	0	1	0.838070874459845	RANDOM	NONE	0	0
1	0	1	0.734540734703842	COHERENT	RIGHT	0	0
0	0	1	0.809582842825876	RANDOM	NONE	0	0
0	0	0	NaN	RANDOM	NONE	1	0
0	0	1	0.833890247216004	RANDOM	NONE	0	0
0	0	1	0.967885236499569	RANDOM	NONE	0	0
0	0	0	NaN	RANDOM	NONE	1	0
0	0	1	0.699609707507079	RANDOM	NONE	0	0
1	180	1	0.688249569862819	COHERENT	LEFT	0	1
0	0	1	0.763261492951642	RANDOM	NONE	0	1
0	0	1	0.614115125720673	RANDOM	NONE	0	1
0	0	1	0.654844999849047	RANDOM	NONE	0	0
1	180	1	0.703787316248963	COHERENT	LEFT	0	0
0	0	0	NaN	RANDOM	NONE	1	0
1	180	1	0.633393401551075	COHERENT	LEFT	0	0
1	180	1	0.704107579462288	COHERENT	LEFT	0	0
0	0	1	0.73800929699064	RANDOM	NONE	0	0
1	180	1	0.719060339883981	COHERENT	LEFT	0	1
1	0	1	0.80080443116276	COHERENT	RIGHT	0	0
0	0	1	0.588938996045727	RANDOM	NONE	0	0
1	180	1	0.584599595520558	COHERENT	LEFT	0	0
0	0	1	0.759528509764095	RANDOM	NONE	0	0
0	0	1	0.699333816293802	RANDOM	NONE	0	0
1	0	1	0.609124030304883	COHERENT	RIGHT	0	1
0	0	1	0.712944550092288	RANDOM	NONE	0	0
0	0	1	0.802627607232353	RANDOM	NONE	0	0
0	0	1	0.934549790214078	RANDOM	NONE	0	0
0	0	1	0.733328201878066	RANDOM	NONE	0	0
1	0	0	NaN	COHERENT	RIGHT	1	0
1	180	1	0.550006640707579	COHERENT	LEFT	0	0
1	180	0	NaN	COHERENT	LEFT	1	0
1	0	1	0.647706842947628	COHERENT	RIGHT	0	0
0	0	1	0.703470977089637	RANDOM	NONE	0	0
0	0	1	0.704250656524891	RANDOM	NONE	0	1
0	0	1	0.628694799118421	RANDOM	NONE	0	0
0	0	0	NaN	RANDOM	NONE	1	0
1	0	1	0.613470373388736	COHERENT	RIGHT	0	0
1	180	1	0.89457424009197	COHERENT	LEFT	0	0
0	0	1	0.598319599142087	RANDOM	NONE	0	0
0	0	1	0.589130067312908	RANDOM	NONE	0	0
0	0	1	0.662979866582646	RANDOM	NONE	0	0
1	0	1	0.58976033082763	COHERENT	RIGHT	0	0
0	0	1	0.679499230281181	RANDOM	NONE	0	0
0	0	1	0.864301669232191	RANDOM	NONE	0	0
0	0	1	0.743749283104989	RANDOM	NONE	0	0
1	0	1	0.668011711793042	COHERENT	RIGHT	0	0
0	0	1	0.76282501735659	RANDOM	NONE	0	0
0	0	1	0.744615895438983	RANDOM	NONE	0	0
0	0	1	0.938328050951895	RANDOM	NONE	0	0
1	180	1	0.60324489118284	COHERENT	LEFT	0	0
1	180	1	0.529060641733849	COHERENT	LEFT	0	0
1	180	1	0.763996196686094	COHERENT	LEFT	0	0
1	0	0	NaN	COHERENT	RIGHT	1	0
0	0	1	0.744482477587553	RANDOM	NONE	0	0
1	0	1	0.679300914606756	COHERENT	RIGHT	0	0
1	0	1	0.684223188142823	COHERENT	RIGHT	0	0
0	0	1	0.639869600652673	RANDOM	NONE	0	0
1	0	1	0.67950677654062	COHERENT	RIGHT	0	1
0	0	0	NaN	RANDOM	NONE	1	1
1	180	1	0.583843460412936	COHERENT	LEFT	0	0
0	0	1	0.813965709800868	RANDOM	NONE	0	0
0	0	1	0.78995894835316	RANDOM	NONE	0	0
1	180	1	0.823615261552732	COHERENT	LEFT	0	0
0	0	1	0.874478251683286	RANDOM	NONE	0	0
1	0	1	0.629280992483473	COHERENT	RIGHT	0	0
1	180	1	0.694067735216777	COHERENT	LEFT	0	0
1	180	1	0.569818286093323	COHERENT	LEFT	0	0
0	0	1	0.659762443779982	RANDOM	NONE	0	0
1	0	0	NaN	COHERENT	RIGHT	1	0
1	180	1	0.539270729572308	COHERENT	LEFT	0	0
0	0	1	0.678085665127583	RANDOM	NONE	0	0
1	180	1	0.754963325182871	COHERENT	LEFT	0	0
1	180	1	0.649638986989885	COHERENT	LEFT	0	0
0	0	1	0.828644993812304	RANDOM	NONE	0	0
1	180	1	0.578347067524192	COHERENT	LEFT	0	0
1	180	1	0.644305291436467	COHERENT	LEFT	0	0
0	0	1	1.05985722478817	RANDOM	NONE	0	0
0	0	1	0.719641401793524	RANDOM	NONE	0	0
1	180	1	0.599596426091921	COHERENT	LEFT	0	0
1	0	1	0.638459657701787	COHERENT	RIGHT	0	0
1	0	1	0.733308581605343	COHERENT	RIGHT	0	0
1	0	0	NaN	COHERENT	RIGHT	1	0
1	180	1	1.05473995592911	COHERENT	LEFT	0	0
0	0	1	0.68751697908192	RANDOM	NONE	0	0
1	180	1	0.703470977089637	COHERENT	LEFT	0	0
0	0	0	NaN	RANDOM	NONE	1	0
0	0	0	NaN	RANDOM	NONE	1	0
1	0	1	0.764923782788173	COHERENT	RIGHT	0	0
0	0	1	0.684615291737828	RANDOM	NONE	0	0
1	180	1	0.613485465905796	COHERENT	LEFT	0	0
1	180	1	0.603239156025666	COHERENT	LEFT	0	0
1	0	1	0.968837876181169	COHERENT	RIGHT	0	0
1	0	1	0.654795798242958	COHERENT	RIGHT	0	0
1	0	0	NaN	COHERENT	RIGHT	1	0
1	0	0	NaN	COHERENT	RIGHT	1	0
1	180	1	0.614269069395959	COHERENT	LEFT	0	0
1	180	1	0.624048114945253	COHERENT	LEFT	0	0
0	0	1	0.689853602583753	RANDOM	NONE	0	0
1	180	1	0.708540855443971	COHERENT	LEFT	0	0
1	180	1	1.02345407347002	COHERENT	LEFT	0	0
1	0	0	NaN	COHERENT	RIGHT	1	0
0	0	1	0.903029068187607	RANDOM	NONE	0	0
0	0	1	0.707938362159439	RANDOM	NONE	0	0
1	180	1	0.757765100062898	COHERENT	LEFT	0	0
0	0	1	0.744516284826204	RANDOM	NONE	0	0
0	0	1	0.819316610823989	RANDOM	NONE	0	0
1	0	1	0.714058377855508	COHERENT	RIGHT	0	0
0	0	1	0.68980741948144	RANDOM	NONE	0	0
0	0	1	0.63878022276549	RANDOM	NONE	0	0
0	0	1	0.794500286757284	RANDOM	NONE	0	0
0	0	1	0.639161761598189	RANDOM	NONE	0	0
1	0	1	0.527298137583784	COHERENT	RIGHT	0	0
1	180	1	0.627984243411447	COHERENT	LEFT	0	0
1	0	1	0.674739955929908	COHERENT	RIGHT	0	0
0	0	0	NaN	RANDOM	NONE	1	0
0	0	1	0.774726976364946	RANDOM	NONE	0	0
1	0	1	0.858122189019014	COHERENT	RIGHT	0	0
1	0	1	0.640043466449242	COHERENT	RIGHT	0	0
1	180	1	0.699822813848186	COHERENT	LEFT	0	0
0	0	1	0.713139243563091	RANDOM	NONE	0	0
0	0	1	0.728453922544759	RANDOM	NONE	0	0
1	180	1	0.683154034229119	COHERENT	LEFT	0	0
1	180	1	0.510038334993624	COHERENT	LEFT	0	0
0	0	1	0.822810226689398	RANDOM	NONE	0	0
0	0	1	0.638631410546623	RANDOM	NONE	0	0
0	0	1	0.634558543873936	RANDOM	NONE	0	0
0	0	1	0.62935554951855	RANDOM	NONE	0	0
1	180	0	NaN	COHERENT	LEFT	1	0
0	0	1	0.73401491140703	RANDOM	NONE	0	0
1	0	1	0.464788855685583	COHERENT	RIGHT	0	0
1	0	1	0.599738295753014	COHERENT	RIGHT	0	0
0	0	1	0.68933170334185	RANDOM	NONE	0	0
1	180	1	0.529278577680998	COHERENT	LEFT	0	0
1	180	1	0.674061698209698	COHERENT	LEFT	0	0
0	0	1	0.768004165534876	RANDOM	NONE	0	0
0	0	1	0.757844184853639	RANDOM	NONE	0	0
0	0	1	0.64953515047273	RANDOM	NONE	0	0
1	0	1	0.669341060701299	COHERENT	RIGHT	0	0
0	0	1	1.11384979926879	RANDOM	NONE	0	0
0	0	1	0.679973437169792	RANDOM	NONE	0	0
0	0	1	0.939794439916113	RANDOM	NONE	0	0
0	0	1	0.624531679193751	RANDOM	NONE	0	0
0	0	1	0.794458027709879	RANDOM	NONE	0	0
0	0	1	0.708123094569601	RANDOM	NONE	0	0
1	0	1	0.743989254127882	COHERENT	RIGHT	0	0
1	180	1	0.770540010263176	COHERENT	LEFT	0	0
1	0	1	0.71733647257679	COHERENT	RIGHT	0	0
1	0	1	0.684361737450672	COHERENT	RIGHT	0	0
0	0	1	0.774231941803919	RANDOM	NONE	0	0
0	0	1	0.760027166530563	RANDOM	NONE	0	0
0	0	1	0.55881463370406	RANDOM	NONE	0	0
1	0	1	0.844717920855146	COHERENT	RIGHT	0	0
1	0	1	0.699431615804315	COHERENT	RIGHT	0	0
1	180	1	0.640027166531581	COHERENT	LEFT	0	0
0	0	1	0.762001267771666	RANDOM	NONE	0	0
0	0	1	0.792929155724778	RANDOM	NONE	0	0
1	180	1	0.72468713211947	COHERENT	LEFT	0	0
0	0	1	0.689479308159207	RANDOM	NONE	0	0
1	0	1	0.789765764134245	COHERENT	RIGHT	0	0
0	0	1	0.983022729330514	RANDOM	NONE	0	0
1	0	1	0.724807570406483	COHERENT	RIGHT	0	0
0	0	1	0.773716079567748	RANDOM	NONE	0	0
0	0	1	0.624550092064055	RANDOM	NONE	0	0
0	0	1	0.659268012919711	RANDOM	NONE	0	0
1	180	1	0.639073621297939	COHERENT	LEFT	0	0
0	0	1	0.622881463370504	RANDOM	NONE	0	0
0	0	1	0.577761477859895	RANDOM	NONE	0	0
0	0	1	0.689802891726686	RANDOM	NONE	0	1
1	0	1	0.779839415617971	COHERENT	RIGHT	0	0
1	0	1	0.689628120378075	COHERENT	RIGHT	0	0
0	0	1	0.594590841860736	RANDOM	NONE	0	0
0	0	1	0.728239608802141	RANDOM	NONE	0	0
0	0	1	0.554207190074521	RANDOM	NONE	0	0
1	0	1	0.604838660991845	COHERENT	RIGHT	0	0
0	0	1	0.769971324217295	RANDOM	NONE	0	0
1	180	1	0.544248543572394	COHERENT	LEFT	0	0
0	0	1	0.589471460049936	RANDOM	NONE	0	0
1	180	1	0.564191493856924	COHERENT	LEFT	0	0
1	0	1	0.564749615140499	COHERENT	RIGHT	0	0
0	0	1	0.628823991065474	RANDOM	NONE	0	1
1	0	1	0.684736937426351	COHERENT	RIGHT	0	0
1	0	1	0.844451085151377	COHERENT	RIGHT	0	0
0	0	1	0.604243412115466	RANDOM	NONE	0	0
0	0	1	0.61809351323609	RANDOM	NONE	0	0
1	0	1	0.554957590026788	COHERENT	RIGHT	0	0
1	0	1	0.587809170213404	COHERENT	RIGHT	0	0
0	0	1	0.869587974282695	RANDOM	NONE	0	0
0	0	1	0.649310271966897	RANDOM	NONE	0	0
0	0	1	0.665257931117594	RANDOM	NONE	0	0
0	0	0	NaN	RANDOM	NONE	1	0
1	180	1	0.660774547979599	COHERENT	LEFT	0	0
0	0	1	0.994469498023136	RANDOM	NONE	0	0
1	180	1	0.708074798514644	COHERENT	LEFT	0	0
1	180	1	0.708093815086613	COHERENT	LEFT	0	0
1	0	1	0.765011621238045	COHERENT	RIGHT	0	0
0	0	1	0.647923873343643	RANDOM	NONE	0	0
0	0	1	0.699671586827208	RANDOM	NONE	0	0
1	180	1	0.584551601315979	COHERENT	LEFT	0	0
1	180	1	0.47441275015899	COHERENT	LEFT	0	0
1	180	1	0.553188445169326	COHERENT	LEFT	0	0
1	180	1	0.593047782909707	COHERENT	LEFT	0	0
1	0	0	NaN	COHERENT	RIGHT	1	0
0	0	1	0.529653777656677	RANDOM	NONE	0	0
0	0	1	0.648481994627218	RANDOM	NONE	0	0
1	180	1	0.719268012919201	COHERENT	LEFT	0	0
0	0	1	0.719009629026004	RANDOM	NONE	0	0
0	0	1	0.654992906517691	RANDOM	NONE	0	0
0	0	1	0.634763802107045	RANDOM	NONE	0	0
1	180	1	0.788577077484661	COHERENT	LEFT	0	0
1	0	1	0.579324458933115	COHERENT	RIGHT	0	0
1	180	1	0.538206405264646	COHERENT	LEFT	0	0
1	180	1	0.444995019469388	COHERENT	LEFT	0	0
1	0	1	0.444927103142618	COHERENT	RIGHT	0	0
0	0	1	0.593676537173451	RANDOM	NONE	0	0
0	0	1	0.65951854870309	RANDOM	NONE	0	0
0	0	1	0.94807057261005	RANDOM	NONE	0	0
1	180	1	0.669192248483341	COHERENT	LEFT	0	0
1	0	1	0.629872921005699	COHERENT	RIGHT	0	0
1	180	1	0.828737661867308	COHERENT	LEFT	0	0
0	0	1	0.874604123275276	RANDOM	NONE	0	0
0	0	1	0.874488212743927	RANDOM	NONE	0	0
1	0	1	0.694132331190303	COHERENT	RIGHT	0	0
0	0	1	0.777976395303085	RANDOM	NONE	0	0
1	0	1	0.668732832261412	COHERENT	RIGHT	0	0
0	0	1	1.04953062271761	RANDOM	NONE	0	0
1	0	1	0.793283226176754	COHERENT	RIGHT	0	0
1	0	1	0.619152404237866	COHERENT	RIGHT	0	0
1	180	1	0.582699749465064	COHERENT	LEFT	0	0
1	180	1	0.549553261493202	COHERENT	LEFT	0	0
1	180	1	0.638759395092166	COHERENT	LEFT	0	0
1	0	1	0.64449243864874	COHERENT	RIGHT	0	0
0	0	1	0.829251411150835	RANDOM	NONE	0	0
0	0	1	0.620038334993296	RANDOM	NONE	0	0
0	0	1	0.627609948987811	RANDOM	NONE	0	0
0	0	1	0.544791874188377	RANDOM	NONE	0	0
0	0	1	0.6945165866764	RANDOM	NONE	0	0
0	0	1	0.649281898035042	RANDOM	NONE	0	0
1	180	1	0.864041474236728	COHERENT	LEFT	0	0
1	0	1	0.887885236499642	COHERENT	RIGHT	0	0
1	0	0	NaN	COHERENT	RIGHT	1	0
0	0	1	0.92450572006419	RANDOM	NONE	0	0
0	0	1	0.874029098373285	RANDOM	NONE	0	0
1	0	1	0.768025596908956	COHERENT	RIGHT	0	0
0	0	1	0.764927706843082	RANDOM	NONE	0	0
0	0	1	0.864742672582906	RANDOM	NONE	0	0
0	0	1	0.837492227354232	RANDOM	NONE	0	0
1	0	1	0.604251260225283	COHERENT	RIGHT	0	0
1	0	1	0.638178635032091	COHERENT	RIGHT	0	0
0	0	1	0.649972229768537	RANDOM	NONE	0	0
0	0	1	0.58979806212119	RANDOM	NONE	0	0
1	180	1	0.659560505901027	COHERENT	LEFT	0	0
0	0	1	0.659455160131984	RANDOM	NONE	0	0
1	0	1	0.599215792810355	COHERENT	RIGHT	0	0
0	0	1	0.645014036041175	RANDOM	NONE	0	0
0	0	1	0.634760481752892	RANDOM	NONE	0	0
0	0	1	0.543584774668489	RANDOM	NONE	0	0
1	180	1	0.73847112801468	COHERENT	LEFT	0	0
0	0	1	0.659277973980352	RANDOM	NONE	0	0
1	180	1	0.683197198829475	COHERENT	LEFT	0	0
0	0	1	0.685017054544915	RANDOM	NONE	0	0
0	0	1	0.574596878866942	RANDOM	NONE	0	0
1	180	1	0.644544960608982	COHERENT	LEFT	0	0
1	0	1	0.904015816957326	COHERENT	RIGHT	0	0
0	0	1	0.630372181472922	RANDOM	NONE	0	0
0	0	1	0.698967068126876	RANDOM	NONE	0	0
0	0	1	0.76974282350875	RANDOM	NONE	0	0
0	0	1	0.668517009266907	RANDOM	NONE	0	0
1	0	1	0.49842434121183	COHERENT	RIGHT	0	0
1	0	1	0.539414712185135	COHERENT	RIGHT	0	0
0	0	1	0.593149506474219	RANDOM	NONE	0	0
0	0	1	0.680450964412557	RANDOM	NONE	0	0
0	0	1	0.577904856771966	RANDOM	NONE	0	0
0	0	1	0.734515379274853	RANDOM	NONE	0	0
0	0	1	0.717489208850566	RANDOM	NONE	0	0
0	0	1	0.640219747049741	RANDOM	NONE	0	0
0	0	1	0.63903196595129	RANDOM	NONE	0	0
0	0	1	0.822667753327551	RANDOM	NONE	0	0
0	0	1	0.93453318844513	RANDOM	NONE	0	0
0	0	1	0.810194693471203	RANDOM	NONE	0	0
0	0	1	1.02225331280806	RANDOM	NONE	0	0
1	180	1	0.529976153822645	COHERENT	LEFT	0	0
0	0	1	0.750688520631229	RANDOM	NONE	0	0
1	180	1	0.669689999697766	COHERENT	LEFT	0	0
1	0	1	0.579504965437991	COHERENT	RIGHT	0	0
0	0	0	NaN	RANDOM	NONE	1	0
1	180	1	0.559069093543258	COHERENT	LEFT	0	0
1	180	1	0.614988982462819	COHERENT	LEFT	0	0
1	180	1	0.694677472909461	COHERENT	LEFT	0	0
1	180	1	0.674607443629611	COHERENT	LEFT	0	0
1	180	1	0.624485496091438	COHERENT	LEFT	0	0
1	0	1	0.779208246551207	COHERENT	RIGHT	0	0
1	0	1	0.617992393371424	COHERENT	RIGHT	0	0
0	0	1	0.679785988107142	RANDOM	NONE	0	0
1	0	1	0.849648344350499	COHERENT	RIGHT	0	0
0	0	1	0.909440067614923	RANDOM	NONE	0	0
0	0	1	0.712937003832849	RANDOM	NONE	0	0
0	0	1	0.585011621238664	RANDOM	NONE	0	0
1	0	1	0.710750399951394	COHERENT	RIGHT	0	0
1	180	1	0.598425850463173	COHERENT	LEFT	0	0
1	0	1	0.64446859247164	COHERENT	RIGHT	0	0
1	180	1	0.534292915572223	COHERENT	LEFT	0	0
1	0	1	0.558240514353201	COHERENT	RIGHT	0	0
0	0	1	0.777835129342748	RANDOM	NONE	0	0
0	0	1	0.574037550182766	RANDOM	NONE	0	0
1	0	1	0.699723505085785	COHERENT	RIGHT	0	0
1	180	1	0.508485013130667	COHERENT	LEFT	0	0
0	0	0	NaN	RANDOM	NONE	1	0
0	0	1	0.793838027106176	RANDOM	NONE	0	0
0	0	1	0.605023393402007	RANDOM	NONE	0	0
1	0	1	0.744611367684229	COHERENT	RIGHT	0	0
1	180	1	0.583611941199706	COHERENT	LEFT	0	0
1	0	1	0.714317969151125	COHERENT	RIGHT	0	0
1	180	1	0.643182710012297	COHERENT	LEFT	0	0
0	0	1	1.0696133297115	RANDOM	NONE	0	0
1	180	1	0.649776027045846	COHERENT	LEFT	0	0
1	180	1	0.783512028735458	COHERENT	LEFT	0	0
1	0	1	0.613174861903644	COHERENT	RIGHT	0	0
1	0	1	0.619092939720758	COHERENT	RIGHT	0	1
1	180	1	0.480213408191958	COHERENT	LEFT	0	0
1	180	1	0.475027619306275	COHERENT	LEFT	0	0
0	0	1	0.568919677623853	RANDOM	NONE	0	1
1	0	0	NaN	COHERENT	RIGHT	1	1
0	0	1	0.544507833016723	RANDOM	NONE	0	0
0	0	1	0.594481270186407	RANDOM	NONE	0	0
0	0	1	0.505217483171691	RANDOM	NONE	0	0
1	0	1	0.592931570527071	COHERENT	RIGHT	0	0
0	0	1	0.649919405958826	RANDOM	NONE	0	0
1	0	0	NaN	COHERENT	RIGHT	1	0
1	180	1	0.478526970327948	COHERENT	LEFT	0	0
1	0	1	0.504510247818871	COHERENT	RIGHT	0	0
0	0	1	0.639212774306543	RANDOM	NONE	0	0
1	0	0	NaN	COHERENT	RIGHT	1	0
1	0	1	0.53964683509912	COHERENT	RIGHT	0	0
0	0	1	0.584718826406061	RANDOM	NONE	0	0
1	180	1	0.424485496090711	COHERENT	LEFT	0	0
1	0	1	0.618453318845241	COHERENT	RIGHT	0	0
0	0	1	0.714121766427525	RANDOM	NONE	0	0
0	0	1	0.767951341725166	RANDOM	NONE	0	0
1	0	1	0.52485224425709	COHERENT	RIGHT	0	0
0	0	1	0.554635817561575	RANDOM	NONE	0	0
1	0	1	0.559497117329556	COHERENT	RIGHT	0	0
0	0	1	0.633351444354048	RANDOM	NONE	0	0
1	180	1	0.479175344864416	COHERENT	LEFT	0	0
0	0	1	0.699955326149393	RANDOM	NONE	0	0
0	0	1	0.668757583989645	RANDOM	NONE	0	0
1	180	1	0.54964291104443	COHERENT	LEFT	0	0
0	0	1	0.623511425034849	RANDOM	NONE	0	0
1	180	1	0.514248241722271	COHERENT	LEFT	0	0
0	0	1	0.47514775574291	RANDOM	NONE	0	0
1	0	1	0.647779287029152	COHERENT	RIGHT	0	0
1	180	1	0.569726523589452	COHERENT	LEFT	0	0
0	0	1	0.574618913942686	RANDOM	NONE	0	0
0	0	1	0.608451507742757	RANDOM	NONE	0	0
1	180	1	0.618228440339408	COHERENT	LEFT	0	0
0	0	1	0.64789036795537	RANDOM	NONE	0	0
1	0	1	0.629916387454614	COHERENT	RIGHT	0	0
1	180	1	0.559703582963266	COHERENT	LEFT	0	0
0	0	1	0.644499381206515	RANDOM	NONE	0	0
0	0	1	0.678366989646747	RANDOM	NONE	0	0
1	0	1	0.564115729422156	COHERENT	RIGHT	0	0
1	180	1	0.533094267861998	COHERENT	LEFT	0	0
0	0	1	0.579824624950561	RANDOM	NONE	0	0
0	0	1	0.758730115608159	RANDOM	NONE	0	0
0	0	1	0.632490265325941	RANDOM	NONE	0	0
1	180	1	0.434431766730086	COHERENT	LEFT	0	1
0	0	1	0.63878776902402	RANDOM	NONE	0	0
1	180	1	0.51298862024214	COHERENT	LEFT	0	0
0	0	1	0.844788251984937	RANDOM	NONE	0	0
0	0	1	0.549645627697828	RANDOM	NONE	0	0
1	180	1	0.543481240001711	COHERENT	LEFT	0	0
1	180	1	0.459114974795739	COHERENT	LEFT	0	0
1	0	1	0.619048869570179	COHERENT	RIGHT	0	0
1	180	1	0.394917142080885	COHERENT	LEFT	0	0
0	0	1	0.62974191795638	RANDOM	NONE	0	0
1	180	1	0.50955929849988	COHERENT	LEFT	0	0
0	0	1	0.709407165926677	RANDOM	NONE	0	0
1	180	1	0.468245645808565	COHERENT	LEFT	0	0
1	0	1	0.567923269642961	COHERENT	RIGHT	0	0
0	0	1	0.592949379697529	RANDOM	NONE	0	0
1	0	1	0.944696187630143	COHERENT	RIGHT	0	0
0	0	1	0.589473573002579	RANDOM	NONE	0	0
0	0	1	0.518995743909727	RANDOM	NONE	0	0
1	180	1	0.538193727549697	COHERENT	LEFT	0	0
0	0	1	0.819015364181723	RANDOM	NONE	0	0
0	0	1	0.607482266292209	RANDOM	NONE	0	0
0	0	1	0.589637175888129	RANDOM	NONE	0	0
0	0	1	0.558453922545596	RANDOM	NONE	0	0
1	0	1	0.508425246763181	COHERENT	RIGHT	0	0
1	180	1	0.580561139787278	COHERENT	LEFT	0	0
0	0	1	0.583966917201906	RANDOM	NONE	0	0
0	0	1	0.489597029792094	RANDOM	NONE	0	0
0	0	1	0.450767907271256	RANDOM	NONE	0	0
0	0	1	0.457469286728156	RANDOM	NONE	0	0
1	180	1	0.478328352803146	COHERENT	LEFT	0	0
0	0	1	0.659261674061781	RANDOM	NONE	0	0
1	180	1	0.472991035045197	COHERENT	LEFT	0	0
0	0	1	0.624896314407124	RANDOM	NONE	0	0
1	0	1	0.509690301548289	COHERENT	RIGHT	0	0
0	0	1	0.974435992635335	RANDOM	NONE	0	0
1	180	1	0.499001479066465	COHERENT	LEFT	0	0
0	0	1	0.689014156781013	RANDOM	NONE	0	0
1	0	1	0.637939871411618	COHERENT	RIGHT	0	0
0	0	1	0.582712427178194	RANDOM	NONE	0	0
0	0	1	0.848650427117718	RANDOM	NONE	0	0
1	180	1	0.638454828096656	COHERENT	LEFT	0	0
1	0	1	0.630123456789988	COHERENT	RIGHT	0	0
1	180	1	0.620034712789675	COHERENT	LEFT	0	0
0	0	1	0.530552084276678	RANDOM	NONE	0	0
0	0	1	0.6136762353226	RANDOM	NONE	0	0
0	0	1	0.469495004376768	RANDOM	NONE	0	0
0	0	1	0.458860816806919	RANDOM	NONE	0	0
0	0	1	0.439211868755592	RANDOM	NONE	0	0
1	180	1	0.589956533550321	COHERENT	LEFT	0	0
1	180	1	0.627730387274823	COHERENT	LEFT	0	0
1	0	1	0.419681246038635	COHERENT	RIGHT	0	0
0	0	1	0.673455884572832	RANDOM	NONE	0	0
1	180	1	0.394410335356042	COHERENT	LEFT	0	0
1	180	1	0.349178061516795	COHERENT	LEFT	0	0
0	0	1	0.669941742883566	RANDOM	NONE	0	0
1	0	1	0.614737239277019	COHERENT	RIGHT	0	0
1	0	1	0.414644873072575	COHERENT	RIGHT	0	0
1	180	1	0.523433245796696	COHERENT	LEFT	0	0
1	0	1	0.765439946873812	COHERENT	RIGHT	0	0
0	0	1	0.612907724350407	RANDOM	NONE	0	0
0	0	1	0.667861692172664	RANDOM	NONE	0	0
0	0	1	0.637884029098132	RANDOM	NONE	0	0
0	0	1	0.6976552265387	RANDOM	NONE	0	0
0	0	1	0.738465996558261	RANDOM	NONE	0	0
1	0	1	0.524421201967925	COHERENT	RIGHT	0	0
1	0	1	0.519115578495985	COHERENT	RIGHT	0	0
0	0	1	0.604916840230544	RANDOM	NONE	0	0
0	0	1	0.64086299012979	RANDOM	NONE	0	0
1	0	1	0.469367019831225	COHERENT	RIGHT	0	0
0	0	0	NaN	RANDOM	NONE	1	0
1	0	1	0.633384949741412	COHERENT	RIGHT	0	0
0	0	0	NaN	RANDOM	NONE	1	0
0	0	0	NaN	RANDOM	NONE	1	0
1	180	1	0.578716834193074	COHERENT	LEFT	0	0
1	0	1	0.539339249599834	COHERENT	RIGHT	0	0
0	0	1	0.544410637206056	RANDOM	NONE	0	0
1	0	1	0.664199040116728	COHERENT	RIGHT	0	0
1	0	1	0.604981436204071	COHERENT	RIGHT	0	0
1	180	1	0.487986960065427	COHERENT	LEFT	0	0
0	0	1	0.727617797096173	RANDOM	NONE	0	0
1	0	1	0.588660388179051	COHERENT	RIGHT	0	0
1	0	1	0.424405505749746	COHERENT	RIGHT	0	0
1	180	1	0.498101663195484	COHERENT	LEFT	0	0
1	180	1	0.503875154698108	COHERENT	LEFT	0	0
1	180	1	0.399893144978705	COHERENT	LEFT	0	0
0	0	0	NaN	RANDOM	NONE	1	0
0	0	1	0.738658878927708	RANDOM	NONE	0	0
0	0	1	0.509272238824451	RANDOM	NONE	0	0
1	0	1	0.72422530109543	COHERENT	RIGHT	0	0
0	0	1	0.700036523891868	RANDOM	NONE	0	0
0	0	1	1.00485948866481	RANDOM	NONE	0	0
0	0	1	0.774583899302343	RANDOM	NONE	0	0
1	0	1	0.624382565124506	COHERENT	RIGHT	0	0
0	0	1	0.844083431435138	RANDOM	NONE	0	0
1	0	1	0.539939629931723	COHERENT	RIGHT	0	0
1	180	1	0.672917685411448	COHERENT	LEFT	0	0
0	0	1	0.689634157384717	RANDOM	NONE	0	0
1	180	1	0.584209906727665	COHERENT	LEFT	0	0
0	0	1	0.688352500829751	RANDOM	NONE	0	0
1	0	1	0.549997283346784	COHERENT	RIGHT	0	0
0	0	1	0.702899876241645	RANDOM	NONE	0	0
0	0	1	0.617481058891826	RANDOM	NONE	0	0
1	180	1	0.619581333574388	COHERENT	LEFT	0	0
