onset	duration	trial_type	trial_type_id	response_time	repsonse_accuracy	bad_epoch	outliers	direction	name_direction	event_num
93.1376953125	0.2	RANDOM	0	0.570348849493712	1	0	0	0	NONE	1
94.52734375	0.2	COHERENT	1	0.514322841989724	1	0	0	180	LEFT	5
95.87744140625	0.2	COHERENT	1	0.564107169268937	1	0	0	180	LEFT	9
NaN	0.2	COHERENT	1	0.633063578929523	1	1	0	180	LEFT	NaN
98.3974609375	0.2	COHERENT	1	0.637803851017907	1	0	0	180	LEFT	13
99.92724609375	0.2	RANDOM	0	0.559567326412889	1	0	0	0	NONE	16
101.34716796875	0.2	COHERENT	1	0.729368315881402	1	0	0	180	LEFT	20
102.69677734375	0.2	RANDOM	0	0.713302282900713	1	0	0	0	NONE	24
104.0966796875	0.2	RANDOM	0	0.79310179329832	1	0	0	0	NONE	28
105.73681640625	0.2	RANDOM	0	0.689856288618103	1	0	0	0	NONE	31
107.06640625	0.2	COHERENT	1	0.708739801200863	1	0	0	0	RIGHT	35
NaN	0.2	RANDOM	0	0.699160551663226	1	1	0	0	NONE	NaN
110.1064453125	0.2	COHERENT	1	0.694276296526368	1	0	0	180	LEFT	39
111.50634765625	0.2	RANDOM	0	0.718092360446917	1	0	0	0	NONE	43
112.90625	0.2	RANDOM	0	0.733032790101788	1	0	0	0	NONE	47
NaN	0.2	RANDOM	0	0.782823154405833	1	1	0	0	NONE	NaN
115.67578125	0.2	RANDOM	0	0.763564742566359	1	0	0	0	NONE	51
117.14599609375	0.2	COHERENT	1	0.708516129421696	1	0	0	0	RIGHT	55
118.67578125	0.2	COHERENT	1	0.704931042080716	1	0	0	180	LEFT	58
120.04541015625	0.2	RANDOM	0	0.691814397700909	1	0	0	0	NONE	62
121.6455078125	0.2	RANDOM	0	0.689803162797489	1	0	0	0	NONE	65
123.03515625	0.2	COHERENT	1	0.79864408416779	1	0	0	0	RIGHT	69
124.53515625	0.2	RANDOM	0	0.758505715553383	1	0	0	0	NONE	73
126.115234375	0.2	RANDOM	0	0.944682437388565	1	0	0	0	NONE	76
127.96484375	0.2	RANDOM	0	0.818082097503975	1	0	0	0	NONE	79
129.43505859375	0.2	COHERENT	1	0.838818373082177	1	0	0	0	RIGHT	83
131.1748046875	0.2	RANDOM	0	0.759465300689044	1	0	0	0	NONE	86
132.70458984375	0.2	COHERENT	1	0.774450102478113	1	0	0	0	RIGHT	89
134.20458984375	0.2	COHERENT	1	0.784294679267987	1	0	0	0	RIGHT	93
135.79443359375	0.2	COHERENT	1	0.77889335293321	1	0	0	180	LEFT	96
137.37451171875	0.2	COHERENT	1	0.719774879334636	1	0	0	0	RIGHT	99
138.89404296875	0.2	COHERENT	1	0.719583203788716	1	0	0	180	LEFT	102
140.4638671875	0.2	COHERENT	1	0.729355034426135	1	0	0	0	RIGHT	105
141.81396484375	0.2	RANDOM	0	0.663293981991956	1	0	0	0	NONE	109
143.2138671875	0.2	RANDOM	0	0.794090054303069	1	0	0	0	NONE	113
144.59375	0.2	RANDOM	0	0.727866605893723	1	0	0	0	NONE	117
146.15380859375	0.2	COHERENT	1	0.724741539863771	1	0	0	0	RIGHT	120
147.53369140625	0.2	RANDOM	0	0.788562252293559	1	0	0	0	NONE	124
149.21337890625	0.2	COHERENT	1	0.749310722662358	1	0	0	180	LEFT	127
150.703125	0.2	COHERENT	1	0.65505042425184	1	0	0	180	LEFT	131
152.1533203125	0.2	COHERENT	1	0.83000492017527	1	0	0	180	LEFT	135
153.69287109375	0.2	RANDOM	0	0.677753260747977	1	0	0	0	NONE	138
155.203125	0.2	RANDOM	0	0.709265022382169	1	0	0	0	NONE	141
156.642578125	0.2	RANDOM	0	0.904292928530595	1	0	0	0	NONE	145
158.2626953125	0.2	RANDOM	0	0.738140717017359	1	0	0	0	NONE	148
NaN	0.2	COHERENT	1	0.750024600877168	1	1	0	180	LEFT	NaN
161.24267578125	0.2	RANDOM	0	0.857781574396085	1	0	0	0	NONE	152
162.88232421875	0.2	RANDOM	0	0.654619078810356	1	0	0	0	NONE	155
164.18212890625	0.2	RANDOM	0	0.738368312862804	1	0	0	0	NONE	159
165.662109375	0.2	COHERENT	1	0.739632767764761	1	0	0	180	LEFT	163
167.11181640625	0.2	COHERENT	1	0.648034193709918	1	0	0	0	RIGHT	167
168.56201171875	0.2	COHERENT	1	0.700824355773875	1	0	0	0	RIGHT	171
169.98193359375	0.2	RANDOM	0	0.745360999007062	1	0	0	0	NONE	175
171.50146484375	0.2	RANDOM	0	0.763482639024915	1	0	0	0	NONE	178
173.12158203125	0.2	COHERENT	1	0.709268342746327	1	0	0	0	RIGHT	181
174.44140625	0.2	COHERENT	1	0.70905191539714	1	0	0	180	LEFT	185
176.04150390625	0.2	COHERENT	1	0.669972440980473	1	0	0	0	RIGHT	188
177.51123046875	0.2	RANDOM	0	0.709978598746147	1	0	0	0	NONE	192
178.89111328125	0.2	COHERENT	1	0.752530268134706	1	0	0	180	LEFT	196
180.4912109375	0.2	COHERENT	1	0.589331067436888	1	0	0	180	LEFT	199
181.9111328125	0.2	RANDOM	0	0.674871788680321	1	0	0	0	NONE	203
183.31103515625	0.2	COHERENT	1	0.75393115980296	1	0	0	180	LEFT	207
184.91064453125	0.2	COHERENT	1	0.699738596814313	1	0	0	180	LEFT	210
186.400390625	0.2	RANDOM	0	0.784565741693768	1	0	0	0	NONE	214
187.83056640625	0.2	RANDOM	0	0.9480341937101	1	0	0	0	NONE	218
NaN	0.2	RANDOM	0	1.05381585262421	1	1	0	0	NONE	NaN
191.1201171875	0.2	RANDOM	0	0.859008599742538	1	0	0	0	NONE	221
192.7001953125	0.2	RANDOM	0	0.834619320291495	1	0	0	0	NONE	224
194.2001953125	0.2	RANDOM	0	0.763651373876201	1	0	0	0	NONE	228
195.86962890625	0.2	RANDOM	0	0.688475922834641	1	0	0	0	NONE	231
197.23974609375	0.2	COHERENT	1	0.783432592087138	1	0	0	180	LEFT	235
198.66943359375	0.2	COHERENT	1	0.797961900334485	1	0	0	180	LEFT	239
200.11962890625	0.2	RANDOM	0	0.767538916172725	1	0	0	0	NONE	243
201.53955078125	0.2	COHERENT	1	0.828558750818502	1	0	0	0	RIGHT	247
203.08935546875	0.2	RANDOM	0	0.804210523138408	1	0	0	0	NONE	250
204.67919921875	0.2	COHERENT	1	0.725251064780423	1	0	0	180	LEFT	253
206.0791015625	0.2	COHERENT	1	0.843044894336799	1	0	0	180	LEFT	257
207.7490234375	0.2	RANDOM	0	0.714888209387937	1	0	0	0	NONE	260
209.21875	0.2	RANDOM	0	1.0795562182866	1	0	0	0	NONE	264
210.96875	0.2	COHERENT	1	0.913103966627204	1	0	0	0	RIGHT	266
212.74853515625	0.2	RANDOM	0	0.824211790913523	1	0	0	0	NONE	269
214.1982421875	0.2	COHERENT	1	1.05297368762604	1	0	0	0	RIGHT	273
215.9384765625	0.2	RANDOM	0	0.832358152549659	1	0	0	0	NONE	275
217.48828125	0.2	RANDOM	0	0.825426742210311	1	0	0	0	NONE	278
219.16796875	0.2	COHERENT	1	0.81814910848243	1	0	0	180	LEFT	281
220.7880859375	0.2	COHERENT	1	0.979068426660433	1	0	0	180	LEFT	284
222.52783203125	0.2	COHERENT	1	0.889607563185109	1	0	0	0	RIGHT	287
224.07763671875	0.2	RANDOM	0	0.823468029424475	1	0	0	0	NONE	290
225.5078125	0.2	COHERENT	1	0.858586611689589	1	0	0	180	LEFT	294
227.1474609375	0.2	COHERENT	1	0.834041576991694	1	0	0	180	LEFT	297
228.7275390625	0.2	RANDOM	0	0.72908427385164	1	0	0	0	NONE	300
230.3671875	0.2	RANDOM	0	0.919941501227186	1	0	0	0	NONE	303
232.126953125	0.2	COHERENT	1	0.839590810440768	1	0	0	0	RIGHT	306
233.59716796875	0.2	RANDOM	0	0.993464618505186	1	0	0	0	NONE	310
235.43701171875	0.2	RANDOM	0	0.83925967961477	1	0	0	0	NONE	313
237.056640625	0.2	COHERENT	1	0.925044598522618	1	0	0	0	RIGHT	316
238.7666015625	0.2	COHERENT	1	0.790786896033296	1	0	0	0	RIGHT	319
240.21630859375	0.2	RANDOM	0	0.778674510774636	1	0	0	0	NONE	323
241.62646484375	0.2	COHERENT	1	0.823508477492851	1	0	0	0	RIGHT	327
243.08642578125	0.2	RANDOM	0	0.848264808068052	1	0	0	0	NONE	331
244.72607421875	0.2	COHERENT	1	0.775039316125913	1	0	0	0	RIGHT	334
246.27587890625	0.2	COHERENT	1	0.943845705713102	1	0	0	0	RIGHT	337
NaN	0.2	COHERENT	1	0.794701604943384	1	1	0	0	RIGHT	NaN
249.4755859375	0.2	RANDOM	0	0.828481175046363	1	0	0	0	NONE	341
251.2158203125	0.2	COHERENT	1	0.728985870342512	1	0	0	180	LEFT	344
252.5654296875	0.2	COHERENT	1	0.723488857161101	1	0	0	0	RIGHT	348
253.99560546875	0.2	RANDOM	0	0.837923987817248	1	0	0	0	NONE	352
255.435546875	0.2	RANDOM	0	0.978418239060375	1	0	0	0	NONE	356
257.03515625	0.2	COHERENT	1	0.93348285032107	1	0	0	0	RIGHT	359
258.60498046875	0.2	RANDOM	0	0.782836134009813	1	0	0	0	NONE	362
260.0849609375	0.2	RANDOM	0	1.11806126976717	1	0	0	0	NONE	366
262.02490234375	0.2	RANDOM	0	0.714964879606669	1	0	0	0	NONE	368
263.384765625	0.2	COHERENT	1	0.748585374099548	1	0	0	0	RIGHT	372
264.9248046875	0.2	COHERENT	1	0.844482611858439	1	0	0	180	LEFT	375
266.49462890625	0.2	COHERENT	1	0.744258034525956	1	0	0	180	LEFT	378
267.96435546875	0.2	COHERENT	1	0.724007739466288	1	0	0	0	RIGHT	382
269.46435546875	0.2	RANDOM	0	0.784973542737589	1	0	0	0	NONE	386
271.01416015625	0.2	RANDOM	0	0.78472813766848	1	0	0	0	NONE	389
272.583984375	0.2	COHERENT	1	0.765094222868811	1	0	0	180	LEFT	392
274.06396484375	0.2	COHERENT	1	0.723295068656171	1	0	0	0	RIGHT	396
275.61376953125	0.2	RANDOM	0	0.834217254421674	1	0	0	0	NONE	399
277.33349609375	0.2	RANDOM	0	0.894947311863689	1	0	0	0	NONE	402
278.9033203125	0.2	RANDOM	0	1.00229678618962	1	0	0	0	NONE	405
280.7734375	0.2	COHERENT	1	0.774444669155855	1	0	0	0	RIGHT	407
282.17333984375	0.2	COHERENT	1	0.773013894213364	1	0	0	0	RIGHT	411
283.623046875	0.2	COHERENT	1	0.723048758032746	1	0	0	180	LEFT	415
285.1728515625	0.2	COHERENT	1	0.864802634557691	1	0	0	180	LEFT	418
286.94287109375	0.2	COHERENT	1	0.769608106517353	1	0	0	0	RIGHT	421
288.462890625	0.2	COHERENT	1	0.829457060149707	1	0	0	0	RIGHT	424
290.0927734375	0.2	COHERENT	1	0.819304896932863	1	0	0	0	RIGHT	427
291.61279296875	0.2	RANDOM	0	0.828192605248205	1	0	0	0	NONE	430
293.1923828125	0.2	COHERENT	1	0.789894321876091	1	0	0	0	RIGHT	433
294.8623046875	0.2	RANDOM	0	0.784532839907115	1	0	0	0	NONE	436
296.51220703125	0.2	RANDOM	0	0.804473133729061	1	0	0	0	NONE	439
298.01220703125	0.2	RANDOM	0	0.978232298687999	1	0	0	0	NONE	443
299.7021484375	0.2	COHERENT	1	0.788065405129601	1	0	0	0	RIGHT	446
301.28173828125	0.2	RANDOM	0	0.789846025675615	1	0	0	0	NONE	449
302.95166015625	0.2	COHERENT	1	0.694318857553299	1	0	0	0	RIGHT	452
304.5517578125	0.2	RANDOM	0	0.749166437763051	1	0	0	0	NONE	455
305.92138671875	0.2	RANDOM	0	0.75326195557318	1	0	0	0	NONE	459
307.3515625	0.2	RANDOM	0	0.743049120254454	1	0	0	0	NONE	463
308.8212890625	0.2	COHERENT	1	0.814784372556915	1	0	0	180	LEFT	467
310.34130859375	0.2	RANDOM	0	0.788604511468748	1	0	0	0	NONE	470
312.03125	0.2	COHERENT	1	0.779494036928554	1	0	0	180	LEFT	473
313.4111328125	0.2	COHERENT	1	0.718175671392601	1	0	0	180	LEFT	477
314.7607421875	0.2	RANDOM	0	0.813978731560383	1	0	0	0	NONE	481
316.20068359375	0.2	RANDOM	0	0.85295376544309	1	0	0	0	NONE	485
317.78076171875	0.2	COHERENT	1	NaN	0	0	1	180	LEFT	488
319.8505859375	0.2	COHERENT	1	0.804087971529498	1	0	0	0	RIGHT	489
321.2705078125	0.2	RANDOM	0	0.823000159981348	1	0	0	0	NONE	493
397.00439453125	0.2	RANDOM	0	0.53923764447336	1	0	0	0	NONE	495
398.314453125	0.2	RANDOM	0	0.550419120465904	1	0	0	0	NONE	499
399.5244140625	0.2	COHERENT	1	0.653181059437429	1	0	0	180	LEFT	503
400.96435546875	0.2	RANDOM	0	0.544006894283029	1	0	0	0	NONE	507
402.18408203125	0.2	COHERENT	1	0.562788984843792	1	0	0	0	RIGHT	511
403.4140625	0.2	RANDOM	0	0.563704801547829	1	0	0	0	NONE	515
404.8642578125	0.2	COHERENT	1	0.664552701719458	1	0	0	0	RIGHT	519
406.25390625	0.2	COHERENT	1	0.604444156008867	1	0	0	0	RIGHT	523
407.73388671875	0.2	COHERENT	1	0.614189121884465	1	0	0	180	LEFT	527
409.11376953125	0.2	COHERENT	1	0.614734567100186	1	0	0	180	LEFT	531
410.6337890625	0.2	COHERENT	1	0.569950103987594	1	0	0	180	LEFT	534
412.00341796875	0.2	COHERENT	1	0.629466719390166	1	0	0	0	RIGHT	538
413.50341796875	0.2	RANDOM	0	0.544494987760118	1	0	0	0	NONE	542
414.72314453125	0.2	RANDOM	0	0.71332703470398	1	0	0	0	NONE	546
416.123046875	0.2	COHERENT	1	0.643210912526683	1	0	0	180	LEFT	550
417.64306640625	0.2	COHERENT	1	0.623925937776221	1	0	0	180	LEFT	553
419.0927734375	0.2	RANDOM	0	0.694540114522624	1	0	0	0	NONE	557
420.52294921875	0.2	COHERENT	1	0.749483079728179	1	0	0	0	RIGHT	561
421.962890625	0.2	COHERENT	1	0.773370682395125	1	0	0	180	LEFT	565
423.5625	0.2	RANDOM	0	0.633910271696095	1	0	0	0	NONE	568
424.79248046875	0.2	COHERENT	1	0.688002318217514	1	0	0	0	RIGHT	572
426.38232421875	0.2	COHERENT	1	0.630103021832838	1	0	0	180	LEFT	575
NaN	0.2	RANDOM	0	0.77268638560281	1	1	0	0	NONE	NaN
429.162109375	0.2	RANDOM	0	0.678481024121083	1	0	0	0	NONE	578
430.72216796875	0.2	RANDOM	0	0.674210130731808	1	0	0	0	NONE	581
432.27197265625	0.2	COHERENT	1	0.583743800729735	1	0	0	0	RIGHT	584
433.60205078125	0.2	COHERENT	1	0.639908659810771	1	0	0	180	LEFT	588
435.02197265625	0.2	RANDOM	0	0.734723760825091	1	0	0	0	NONE	592
436.5517578125	0.2	COHERENT	1	0.679493735076903	1	0	0	180	LEFT	595
438.021484375	0.2	RANDOM	0	0.719227623012102	1	0	0	0	NONE	599
439.51123046875	0.2	COHERENT	1	0.719183854580024	1	0	0	180	LEFT	603
441.12109375	0.2	RANDOM	0	0.739932506059631	1	0	0	0	NONE	606
442.611328125	0.2	COHERENT	1	0.739682875072958	1	0	0	180	LEFT	610
444.03125	0.2	COHERENT	1	0.743486804572512	1	0	0	0	RIGHT	614
445.56103515625	0.2	RANDOM	0	0.739368647917672	1	0	0	0	NONE	617
447.130859375	0.2	RANDOM	0	0.624171946548358	1	0	0	0	NONE	620
448.61083984375	0.2	RANDOM	0	0.709936339570959	1	0	0	0	NONE	624
449.95068359375	0.2	COHERENT	1	0.683097235344121	1	0	0	180	LEFT	628
451.50048828125	0.2	RANDOM	0	0.66354602778847	1	0	0	0	NONE	631
453.0703125	0.2	COHERENT	1	0.609467866424893	1	0	0	0	RIGHT	634
454.59033203125	0.2	RANDOM	0	0.589196139926116	1	0	0	0	NONE	637
455.89013671875	0.2	RANDOM	0	0.795018850610631	1	0	0	0	NONE	641
457.33984375	0.2	COHERENT	1	0.817907325627857	1	0	0	180	LEFT	645
458.91015625	0.2	RANDOM	0	0.669519060397306	1	0	0	0	NONE	648
460.31982421875	0.2	RANDOM	0	0.7592183863635	1	0	0	0	NONE	652
461.78955078125	0.2	COHERENT	1	0.778192152471092	1	0	0	180	LEFT	656
463.3896484375	0.2	COHERENT	1	0.804983564199119	1	0	0	0	RIGHT	659
464.8896484375	0.2	COHERENT	1	0.747742907250085	1	0	0	0	RIGHT	663
466.3994140625	0.2	COHERENT	1	0.739694043569216	1	0	0	0	RIGHT	666
467.80908203125	0.2	RANDOM	0	0.793420850073289	1	0	0	0	NONE	670
469.46923828125	0.2	COHERENT	1	0.959293245474328	1	0	0	0	RIGHT	673
471.298828125	0.2	RANDOM	0	0.653740087959704	1	0	0	0	NONE	676
472.64892578125	0.2	RANDOM	0	0.848664760978863	1	0	0	0	NONE	680
474.11865234375	0.2	RANDOM	0	0.793671688465565	1	0	0	0	NONE	684
475.53857421875	0.2	RANDOM	0	0.873193797560361	1	0	0	0	NONE	688
477.318359375	0.2	RANDOM	0	0.639249718523843	1	0	0	0	NONE	691
478.63818359375	0.2	RANDOM	0	0.812990772407375	1	0	0	0	NONE	695
480.2880859375	0.2	RANDOM	0	0.87989187688072	1	0	0	0	NONE	698
481.8583984375	0.2	RANDOM	0	1.14229690692991	1	0	0	0	NONE	701
483.73828125	0.2	COHERENT	1	0.64919481178049	1	0	0	0	RIGHT	703
485.2978515625	0.2	COHERENT	1	0.710446770040562	1	0	0	0	RIGHT	706
486.60791015625	0.2	COHERENT	1	0.747891116215669	1	0	0	0	RIGHT	710
488.2578125	0.2	COHERENT	1	0.649943704741418	1	0	0	180	LEFT	713
489.66748046875	0.2	COHERENT	1	0.699703582069105	1	0	0	180	LEFT	717
491.12744140625	0.2	RANDOM	0	0.704503318854222	1	0	0	0	NONE	721
492.62744140625	0.2	RANDOM	0	0.750302304030356	1	0	0	0	NONE	725
494.26708984375	0.2	COHERENT	1	0.725233859258879	1	0	0	180	LEFT	728
495.6171875	0.2	RANDOM	0	0.762910329047827	1	0	0	0	NONE	732
497.1572265625	0.2	COHERENT	1	0.67471180751545	1	0	0	0	RIGHT	735
498.45703125	0.2	COHERENT	1	1.05346419591342	1	0	0	0	RIGHT	739
500.2568359375	0.2	RANDOM	0	0.849385279921535	1	0	0	0	NONE	741
501.95654296875	0.2	RANDOM	0	0.779038543386378	1	0	0	0	NONE	744
503.50634765625	0.2	COHERENT	1	0.834892193824999	1	0	0	180	LEFT	747
504.99658203125	0.2	COHERENT	1	0.747681933296917	1	0	0	180	LEFT	751
506.396484375	0.2	RANDOM	0	0.818448846777301	1	0	0	0	NONE	755
507.84619140625	0.2	COHERENT	1	0.823381398114634	1	0	0	0	RIGHT	759
509.3662109375	0.2	COHERENT	1	0.758656641180551	1	0	0	180	LEFT	762
510.89599609375	0.2	RANDOM	0	0.793987123025545	1	0	0	0	NONE	765
512.595703125	0.2	RANDOM	0	0.699515830589007	1	0	0	0	NONE	768
514.1455078125	0.2	RANDOM	0	0.829337828904499	1	0	0	0	NONE	771
515.765625	0.2	COHERENT	1	0.829074312759985	1	0	0	0	RIGHT	774
517.3056640625	0.2	RANDOM	0	0.848189345254013	1	0	0	0	NONE	777
518.75537109375	0.2	COHERENT	1	1.02786962440632	1	0	0	0	RIGHT	781
NaN	0.2	RANDOM	0	1.11843103755336	1	1	0	0	NONE	NaN
522.455078125	0.2	RANDOM	0	0.819536114993298	1	0	0	0	NONE	783
523.9248046875	0.2	RANDOM	0	0.988202143747458	1	0	0	0	NONE	787
525.8046875	0.2	COHERENT	1	0.829003679566995	1	0	0	180	LEFT	790
527.32470703125	0.2	RANDOM	0	0.723867378632804	1	0	0	0	NONE	793
NaN	0.2	COHERENT	1	0.772642617171186	1	1	0	180	LEFT	NaN
530.36474609375	0.2	COHERENT	1	0.594427825856201	1	0	0	180	LEFT	796
531.8642578125	0.2	COHERENT	1	0.649211715450747	1	0	0	0	RIGHT	800
533.1640625	0.2	COHERENT	1	0.668162239011963	1	0	0	180	LEFT	804
534.583984375	0.2	COHERENT	1	0.669936218830117	1	0	0	180	LEFT	808
535.88427734375	0.2	RANDOM	0	0.673688229914205	1	0	0	0	NONE	812
537.333984375	0.2	RANDOM	0	0.604521731781006	1	0	0	0	NONE	816
538.8037109375	0.2	COHERENT	1	0.704405820899865	1	0	0	0	RIGHT	820
540.423828125	0.2	RANDOM	0	0.599159344258169	1	0	0	0	NONE	823
541.673828125	0.2	COHERENT	1	0.718102623389314	1	0	0	180	LEFT	827
543.28369140625	0.2	COHERENT	1	0.60987868598113	1	0	0	180	LEFT	830
544.5234375	0.2	COHERENT	1	0.593668368101589	1	0	0	0	RIGHT	834
545.9033203125	0.2	RANDOM	0	0.709398440636505	1	0	0	0	NONE	838
547.29345703125	0.2	COHERENT	1	0.513275719990816	1	0	0	180	LEFT	842
548.64306640625	0.2	RANDOM	0	0.664991895293952	1	0	0	0	NONE	846
549.9228515625	0.2	RANDOM	0	0.682979513355349	1	0	0	0	NONE	850
551.212890625	0.2	COHERENT	1	0.837756460371565	1	0	0	180	LEFT	854
552.73291015625	0.2	COHERENT	1	0.67345338963878	1	0	0	0	RIGHT	857
554.29248046875	0.2	COHERENT	1	0.589391437687482	1	0	0	180	LEFT	860
555.50244140625	0.2	COHERENT	1	0.678191548768609	1	0	0	0	RIGHT	864
556.91259765625	0.2	RANDOM	0	0.570060581546841	1	0	0	0	NONE	868
558.2021484375	0.2	RANDOM	0	0.607875601061096	1	0	0	0	NONE	872
559.4521484375	0.2	RANDOM	0	0.648664459127758	1	0	0	0	NONE	876
560.92236328125	0.2	COHERENT	1	0.705216291516081	1	0	0	0	RIGHT	880
562.23193359375	0.2	RANDOM	0	0.917157527113886	1	0	0	0	NONE	884
563.97216796875	0.2	RANDOM	0	0.624037924591448	1	0	0	0	NONE	887
565.2216796875	0.2	COHERENT	1	0.642983014829952	1	0	0	180	LEFT	891
566.501953125	0.2	COHERENT	1	0.652919354400638	1	0	0	180	LEFT	895
567.8515625	0.2	RANDOM	0	0.607641062636958	1	0	0	0	NONE	899
569.34130859375	0.2	RANDOM	0	0.604450193034154	1	0	0	0	NONE	903
570.71142578125	0.2	RANDOM	0	0.66432027625433	1	0	0	0	NONE	907
572.1611328125	0.2	COHERENT	1	0.684369538379087	1	0	0	0	RIGHT	911
573.611328125	0.2	COHERENT	1	0.634889175311855	1	0	0	180	LEFT	915
575.09130859375	0.2	RANDOM	0	0.839426905210075	1	0	0	0	NONE	919
576.7607421875	0.2	RANDOM	0	0.814457467648936	1	0	0	0	NONE	922
578.45068359375	0.2	RANDOM	0	0.704331565490975	1	0	0	0	NONE	925
579.77099609375	0.2	RANDOM	0	0.818124356679618	1	0	0	0	NONE	929
581.48046875	0.2	COHERENT	1	0.689886473743627	1	0	0	180	LEFT	932
583.05029296875	0.2	RANDOM	0	0.674703657531609	1	0	0	0	NONE	935
584.5703125	0.2	RANDOM	0	0.730039029367163	1	0	0	0	NONE	938
585.97021484375	0.2	RANDOM	0	0.772350727008416	1	0	0	0	NONE	942
587.42041015625	0.2	COHERENT	1	0.70301851253771	1	0	0	0	RIGHT	946
588.8701171875	0.2	COHERENT	1	0.649915330723161	1	0	0	0	RIGHT	950
590.2197265625	0.2	COHERENT	1	0.727821328206119	1	0	0	0	RIGHT	954
591.68994140625	0.2	RANDOM	0	0.694481253528011	1	0	0	0	NONE	958
NaN	0.2	RANDOM	0	0.554470869844863	1	1	0	0	NONE	NaN
594.40966796875	0.2	RANDOM	0	0.569055718722666	1	0	0	0	NONE	962
595.849609375	0.2	RANDOM	0	0.684996785284056	1	0	0	0	NONE	966
597.44921875	0.2	RANDOM	0	0.73986972099874	1	0	0	0	NONE	969
598.779296875	0.2	COHERENT	1	0.748422978124836	1	0	0	0	RIGHT	973
600.37939453125	0.2	COHERENT	1	0.619507137273104	1	0	0	0	RIGHT	976
601.69921875	0.2	RANDOM	0	0.728387903009207	1	0	0	0	NONE	980
603.2490234375	0.2	RANDOM	0	0.654152114920635	1	0	0	0	NONE	983
604.5986328125	0.2	COHERENT	1	0.708895556447715	1	0	0	0	RIGHT	987
605.94873046875	0.2	RANDOM	0	0.72284108437043	1	0	0	0	NONE	991
607.3388671875	0.2	COHERENT	1	0.653543582793191	1	0	0	0	RIGHT	995
608.6083984375	0.2	COHERENT	1	0.708396898176488	1	0	0	0	RIGHT	999
610.20849609375	0.2	COHERENT	1	0.679171659789517	1	0	0	0	RIGHT	1002
611.48828125	0.2	RANDOM	0	0.708977056286585	1	0	0	0	NONE	1006
612.828125	0.2	COHERENT	1	0.742875857634772	1	0	0	180	LEFT	1010
614.23828125	0.2	COHERENT	1	0.663447624279797	1	0	0	180	LEFT	1014
615.6279296875	0.2	COHERENT	1	0.654450947662099	1	0	0	0	RIGHT	1018
NaN	0.2	COHERENT	1	0.589450902384215	1	1	0	0	RIGHT	NaN
NaN	0.2	COHERENT	1	0.668323729432359	1	1	0	0	RIGHT	NaN
686.8828125	0.2	COHERENT	1	0.554380616320032	1	0	0	180	LEFT	1022
688.3125	0.2	RANDOM	0	0.554173546359834	1	0	0	0	NONE	1026
689.71240234375	0.2	COHERENT	1	0.600080292433631	1	0	0	0	RIGHT	1030
691.05224609375	0.2	COHERENT	1	0.604852560755262	1	0	0	180	LEFT	1034
692.4521484375	0.2	RANDOM	0	0.529622172785821	1	0	0	0	NONE	1038
693.88232421875	0.2	RANDOM	0	0.529420837999623	1	0	0	0	NONE	1042
695.3017578125	0.2	RANDOM	0	0.459364180519515	1	0	0	0	NONE	1046
696.52197265625	0.2	RANDOM	0	0.469073527946875	1	0	0	0	NONE	1050
697.82177734375	0.2	COHERENT	1	0.454917005997686	1	0	0	180	LEFT	1054
699.021484375	0.2	RANDOM	0	0.500331130825089	1	0	0	0	NONE	1058
700.1416015625	0.2	COHERENT	1	0.592388216934523	1	0	0	0	RIGHT	1062
701.44140625	0.2	RANDOM	0	0.508433422178314	1	0	0	0	NONE	1066
702.58154296875	0.2	COHERENT	1	0.663728345945401	1	0	0	180	LEFT	1070
703.96142578125	0.2	COHERENT	1	NaN	0	0	1	0	RIGHT	1074
NaN	0.2	COHERENT	1	0.749751425492377	1	1	0	0	RIGHT	NaN
706.93115234375	0.2	RANDOM	0	0.454840637630241	1	0	0	0	NONE	1077
708.1611328125	0.2	COHERENT	1	0.60462828527352	1	0	0	180	LEFT	1081
709.4111328125	0.2	RANDOM	0	0.678547129545223	1	0	0	0	NONE	1085
710.78076171875	0.2	RANDOM	0	0.833276685914825	1	0	0	0	NONE	1089
712.23046875	0.2	RANDOM	0	0.603168532610653	1	0	0	0	NONE	1093
713.6806640625	0.2	RANDOM	0	0.609635393870576	1	0	0	0	NONE	1097
714.92041015625	0.2	RANDOM	0	0.713845917009166	1	0	0	0	NONE	1101
716.4404296875	0.2	RANDOM	0	0.55959479487683	1	0	0	0	NONE	1104
717.85009765625	0.2	RANDOM	0	0.649379242896885	1	0	0	0	NONE	1108
719.3701171875	0.2	RANDOM	0	0.564303976286737	1	0	0	0	NONE	1111
720.740234375	0.2	COHERENT	1	0.650043919357358	1	0	0	0	RIGHT	1115
722.16015625	0.2	COHERENT	1	0.484846463359645	1	0	0	0	RIGHT	1119
NaN	0.2	COHERENT	1	0.468655463960658	1	1	0	0	RIGHT	NaN
NaN	0.2	COHERENT	1	0.613317375463794	1	1	0	0	RIGHT	NaN
725.90966796875	0.2	COHERENT	1	0.419342326488277	1	0	0	0	RIGHT	1123
726.9296875	0.2	RANDOM	0	0.579799510397152	1	0	0	0	NONE	1127
728.37939453125	0.2	RANDOM	0	0.441717654374315	1	0	0	0	NONE	1131
729.54931640625	0.2	RANDOM	0	0.534917247478916	1	0	0	0	NONE	1135
730.8193359375	0.2	COHERENT	1	0.634814919903874	1	0	0	0	RIGHT	1139
732.19921875	0.2	COHERENT	1	0.439617675201589	1	0	0	0	RIGHT	1143
733.279296875	0.2	COHERENT	1	0.558195412464556	1	0	0	180	LEFT	1147
734.7490234375	0.2	COHERENT	1	0.469056624276618	1	0	0	180	LEFT	1151
735.81884765625	0.2	COHERENT	1	0.628109294302249	1	0	0	180	LEFT	1155
737.0986328125	0.2	COHERENT	1	0.5278484948185	1	0	0	0	RIGHT	1159
738.30859375	0.2	RANDOM	0	0.614213873687277	1	0	0	0	NONE	1163
739.61865234375	0.2	RANDOM	0	0.537604327339523	1	0	0	0	NONE	1167
740.888671875	0.2	COHERENT	1	0.554528221583041	1	0	0	0	RIGHT	1171
742.23828125	0.2	COHERENT	1	0.499708713540258	1	0	0	180	LEFT	1175
743.48828125	0.2	COHERENT	1	0.738086383792051	1	0	0	0	RIGHT	1179
745.078125	0.2	COHERENT	1	0.459890609105514	1	0	0	180	LEFT	1182
746.29833984375	0.2	COHERENT	1	0.890710829517047	1	0	0	180	LEFT	1186
747.998046875	0.2	COHERENT	1	0.554584365916071	1	0	0	180	LEFT	1189
749.22802734375	0.2	RANDOM	0	0.543137864523487	1	0	0	0	NONE	1193
750.677734375	0.2	COHERENT	1	0.609197407701686	1	0	0	0	RIGHT	1197
752.12744140625	0.2	RANDOM	0	0.510086359643992	1	0	0	0	NONE	1201
753.267578125	0.2	RANDOM	0	0.532879147813674	1	0	0	0	NONE	1205
754.6474609375	0.2	COHERENT	1	0.539772826746685	1	0	0	0	RIGHT	1209
756.0673828125	0.2	COHERENT	1	0.42448375889353	1	0	0	180	LEFT	1213
757.1171875	0.2	COHERENT	1	0.533269139633376	1	0	0	180	LEFT	1217
758.25732421875	0.2	RANDOM	0	0.588291491718792	1	0	0	0	NONE	1221
759.6171875	0.2	RANDOM	0	0.675048371663252	1	0	0	0	NONE	1225
761.0869140625	0.2	RANDOM	0	0.519864529157076	1	0	0	0	NONE	1229
762.52685546875	0.2	COHERENT	1	0.509655919755915	1	0	0	0	RIGHT	1233
763.90673828125	0.2	RANDOM	0	0.554438571760784	1	0	0	0	NONE	1237
765.306640625	0.2	RANDOM	0	0.509315733392668	1	0	0	0	NONE	1241
766.40673828125	0.2	COHERENT	1	0.668086474347547	1	0	0	0	RIGHT	1245
767.8564453125	0.2	COHERENT	1	0.684978674209106	1	0	0	180	LEFT	1249
769.4462890625	0.2	COHERENT	1	0.539821424798447	1	0	0	180	LEFT	1252
770.6162109375	0.2	RANDOM	0	0.62366211978042	1	0	0	0	NONE	1256
772.01611328125	0.2	RANDOM	0	0.744401715722688	1	0	0	0	NONE	1260
773.63623046875	0.2	COHERENT	1	0.594474612800241	1	0	0	180	LEFT	1263
774.98583984375	0.2	RANDOM	0	0.780044009912672	1	0	0	0	NONE	1267
776.5859375	0.2	RANDOM	0	0.594851021313843	1	0	0	0	NONE	1270
777.91552734375	0.2	RANDOM	0	0.690439767091448	1	0	0	0	NONE	1274
779.435546875	0.2	RANDOM	0	0.66355538517746	1	0	0	0	NONE	1277
780.95556640625	0.2	COHERENT	1	0.509325996335519	1	0	0	180	LEFT	1280
782.28515625	0.2	RANDOM	0	0.583968679914051	1	0	0	0	NONE	1284
783.72509765625	0.2	COHERENT	1	0.658940683210403	1	0	0	180	LEFT	1288
784.9951171875	0.2	COHERENT	1	0.757873035325701	1	0	0	180	LEFT	1292
786.44482421875	0.2	RANDOM	0	0.608600345921786	1	0	0	0	NONE	1296
787.7548828125	0.2	RANDOM	0	0.628413258514684	1	0	0	0	NONE	1300
789.11474609375	0.2	RANDOM	0	0.584185710965357	1	0	0	0	NONE	1304
790.5146484375	0.2	RANDOM	0	0.47409995502403	1	0	0	0	NONE	1308
791.8447265625	0.2	RANDOM	0	0.639910772769326	1	0	0	0	NONE	1312
793.234375	0.2	RANDOM	0	0.539802106318348	1	0	0	0	NONE	1316
794.39453125	0.2	COHERENT	1	0.683597101020496	1	0	0	0	RIGHT	1320
795.984375	0.2	COHERENT	1	0.619344137595817	1	0	0	180	LEFT	1323
797.2041015625	0.2	RANDOM	0	0.748281711737945	1	0	0	0	NONE	1327
798.7841796875	0.2	RANDOM	0	0.614048459200148	1	0	0	0	NONE	1330
800.1142578125	0.2	COHERENT	1	NaN	0	0	1	0	RIGHT	1334
801.18408203125	0.2	RANDOM	0	0.632671172299979	1	0	0	0	NONE	1338
802.50390625	0.2	RANDOM	0	0.783443760583395	1	0	0	0	NONE	1342
803.95361328125	0.2	RANDOM	0	0.643117942340268	1	0	0	0	NONE	1346
805.45361328125	0.2	COHERENT	1	0.609227894678043	1	0	0	0	RIGHT	1350
806.70361328125	0.2	RANDOM	0	0.648096073216948	1	0	0	0	NONE	1354
808.04345703125	0.2	COHERENT	1	0.642852916939319	1	0	0	0	RIGHT	1358
809.2734375	0.2	COHERENT	1	0.589028008777859	1	0	0	180	LEFT	1362
810.54345703125	0.2	RANDOM	0	0.633452363344531	1	0	0	0	NONE	1366
NaN	0.2	COHERENT	1	0.609332335212002	1	1	0	180	LEFT	NaN
813.44287109375	0.2	COHERENT	1	0.589172293677166	1	0	0	0	RIGHT	1370
814.6328125	0.2	COHERENT	1	0.55791287969123	1	0	0	180	LEFT	1374
816.06298828125	0.2	COHERENT	1	0.634839973557973	1	0	0	0	RIGHT	1378
817.58251953125	0.2	COHERENT	1	0.553581917902648	1	0	0	0	RIGHT	1381
819.03271484375	0.2	RANDOM	0	0.57938084270836	1	0	0	0	NONE	1385
820.232421875	0.2	COHERENT	1	0.583335999686369	1	0	0	0	RIGHT	1389
821.42236328125	0.2	RANDOM	0	0.678132687773996	1	0	0	0	NONE	1393
822.8720703125	0.2	RANDOM	0	0.725002641198444	1	0	0	0	NONE	1397
824.251953125	0.2	RANDOM	0	0.717692709386483	1	0	0	0	NONE	1401
825.7919921875	0.2	RANDOM	0	0.524599367923656	1	0	0	0	NONE	1404
827.02197265625	0.2	COHERENT	1	0.668230759246399	1	0	0	180	LEFT	1408
828.52197265625	0.2	RANDOM	0	0.714242549556275	1	0	0	0	NONE	1412
830.02197265625	0.2	COHERENT	1	0.660097980916817	1	0	0	0	RIGHT	1416
831.5615234375	0.2	RANDOM	0	0.774462478379974	1	0	0	0	NONE	1419
833.0615234375	0.2	RANDOM	0	0.664595866448963	1	0	0	0	NONE	1423
834.5615234375	0.2	RANDOM	0	0.664376118736072	1	0	0	0	NONE	1427
835.88134765625	0.2	COHERENT	1	0.588064801427208	1	0	0	180	LEFT	1431
837.361328125	0.2	COHERENT	1	0.499824624421763	1	0	0	180	LEFT	1435
838.6611328125	0.2	RANDOM	0	0.539027857852034	1	0	0	0	NONE	1439
839.85107421875	0.2	COHERENT	1	0.687885199931316	1	0	0	0	RIGHT	1443
841.32080078125	0.2	COHERENT	1	0.6045685187255	1	0	0	180	LEFT	1447
842.70068359375	0.2	COHERENT	1	0.564354989148342	1	0	0	0	RIGHT	1451
843.9306640625	0.2	RANDOM	0	0.943162012623816	1	0	0	0	NONE	1455
845.650390625	0.2	COHERENT	1	0.994705830860767	1	0	0	0	RIGHT	1458
847.400390625	0.2	COHERENT	1	0.850816658567055	1	0	0	180	LEFT	1460
848.96044921875	0.2	RANDOM	0	0.777615918427728	1	0	0	0	NONE	1463
850.51025390625	0.2	COHERENT	1	0.764345631759625	1	0	0	0	RIGHT	1466
851.990234375	0.2	COHERENT	1	0.774132554959579	1	0	0	0	RIGHT	1470
853.3798828125	0.2	COHERENT	1	0.818159371424827	1	0	0	180	LEFT	1474
854.98974609375	0.2	RANDOM	0	0.699916689054135	1	0	0	0	NONE	1477
856.5498046875	0.2	COHERENT	1	0.649595066543498	1	0	0	0	RIGHT	1480
857.849609375	0.2	RANDOM	0	0.818377609881736	1	0	0	0	NONE	1484
859.279296875	0.2	RANDOM	0	0.77313795507871	1	0	0	0	NONE	1488
860.779296875	0.2	RANDOM	0	0.714069588788334	1	0	0	0	NONE	1492
862.3193359375	0.2	COHERENT	1	0.633870427330748	1	0	0	180	LEFT	1495
863.79931640625	0.2	RANDOM	0	0.769677834156937	1	0	0	0	NONE	1499
865.3388671875	0.2	RANDOM	0	0.839413623754353	1	0	0	0	NONE	1502
867.01904296875	0.2	COHERENT	1	0.709219140991536	1	0	0	0	RIGHT	1505
868.61865234375	0.2	COHERENT	1	0.780143620826493	1	0	0	180	LEFT	1508
870.20849609375	0.2	RANDOM	0	0.66985894490881	1	0	0	0	NONE	1511
871.65869140625	0.2	RANDOM	0	0.724738219500068	1	0	0	0	NONE	1515
873.17822265625	0.2	COHERENT	1	0.669419449483939	1	0	0	180	LEFT	1518
874.5283203125	0.2	COHERENT	1	0.663324167117025	1	0	0	180	LEFT	1522
876.05810546875	0.2	COHERENT	1	0.674101464280739	1	0	0	180	LEFT	1525
877.4482421875	0.2	RANDOM	0	0.687888520295019	1	0	0	0	NONE	1529
878.998046875	0.2	COHERENT	1	0.574405126641523	1	0	0	180	LEFT	1532
880.248046875	0.2	RANDOM	0	1.07431909903471	1	0	0	0	NONE	1536
882.2275390625	0.2	RANDOM	0	0.748331215344024	1	0	0	0	NONE	1538
883.8876953125	0.2	RANDOM	0	0.599085994403595	1	0	0	0	NONE	1541
885.19775390625	0.2	COHERENT	1	0.704908403236914	1	0	0	180	LEFT	1545
886.78759765625	0.2	COHERENT	1	0.704645490794974	1	0	0	0	RIGHT	1548
888.357421875	0.2	COHERENT	1	0.69453015343106	1	0	0	180	LEFT	1551
889.95703125	0.2	RANDOM	0	0.719377039382834	1	0	0	0	NONE	1554
891.45703125	0.2	RANDOM	0	0.874102369833963	1	0	0	0	NONE	1558
942.6630859375	0.2	RANDOM	0	0.529643302373188	1	0	0	0	NONE	1560
943.9228515625	0.2	RANDOM	0	0.474115651289139	1	0	0	0	NONE	1564
945.283203125	0.2	RANDOM	0	0.524184624301142	1	0	0	0	NONE	1568
946.712890625	0.2	COHERENT	1	0.613088572213201	1	0	0	0	RIGHT	1572
947.98291015625	0.2	RANDOM	0	0.578946478754006	1	0	0	0	NONE	1576
949.40283203125	0.2	COHERENT	1	0.88374349887863	1	0	0	0	RIGHT	1580
951.17236328125	0.2	RANDOM	0	0.58454340470098	1	0	0	0	NONE	1583
952.6025390625	0.2	COHERENT	1	0.624334342522616	1	0	0	0	RIGHT	1587
953.83251953125	0.2	COHERENT	1	0.588108268007545	1	0	0	180	LEFT	1591
955.10205078125	0.2	RANDOM	0	0.493058628569088	1	0	0	0	NONE	1595
956.27197265625	0.2	COHERENT	1	0.572822822369744	1	0	0	0	RIGHT	1599
957.52197265625	0.2	RANDOM	0	0.493794541925581	1	0	0	0	NONE	1603
958.64208984375	0.2	RANDOM	0	0.663548744450054	1	0	0	0	NONE	1607
960.16162109375	0.2	COHERENT	1	0.469336440388815	1	0	0	180	LEFT	1610
961.27197265625	0.2	RANDOM	0	0.588117625396535	1	0	0	0	NONE	1614
962.76171875	0.2	COHERENT	1	0.470031603826101	1	0	0	0	RIGHT	1618
963.91162109375	0.2	COHERENT	1	0.49299554165691	1	0	0	180	LEFT	1622
965.08154296875	0.2	COHERENT	1	0.442732176437858	1	0	0	0	RIGHT	1626
966.3115234375	0.2	RANDOM	0	0.629541578501176	1	0	0	0	NONE	1630
967.63134765625	0.2	COHERENT	1	0.623330385252757	1	0	0	180	LEFT	1634
969.13134765625	0.2	RANDOM	0	0.795242220538512	1	0	0	0	NONE	1638
970.51123046875	0.2	RANDOM	0	0.50783786965485	1	0	0	0	NONE	1642
971.93115234375	0.2	COHERENT	1	0.568709495334588	1	0	0	180	LEFT	1646
973.32080078125	0.2	RANDOM	0	0.504608363090938	1	0	0	0	NONE	1650
974.70068359375	0.2	RANDOM	0	0.564254472681114	1	0	0	0	NONE	1654
976.0908203125	0.2	COHERENT	1	0.584373462445001	1	0	0	0	RIGHT	1658
977.50048828125	0.2	RANDOM	0	0.513844407752913	1	0	0	0	NONE	1662
978.740234375	0.2	COHERENT	1	0.525117042823695	1	0	0	180	LEFT	1666
980.09033203125	0.2	COHERENT	1	0.59477555850026	1	0	0	0	RIGHT	1670
981.59033203125	0.2	RANDOM	0	0.819582901937792	1	0	0	0	NONE	1674
983.09033203125	0.2	RANDOM	0	0.673342610228246	1	0	0	0	NONE	1678
984.35986328125	0.2	RANDOM	0	0.697957976268754	1	0	0	0	NONE	1682
985.7099609375	0.2	COHERENT	1	0.728027492612	1	0	0	0	RIGHT	1686
987.19970703125	0.2	RANDOM	0	0.520336020816103	1	0	0	0	NONE	1690
988.52978515625	0.2	RANDOM	0	0.64339624919603	1	0	0	0	NONE	1694
989.77978515625	0.2	RANDOM	0	0.598201872081063	1	0	0	0	NONE	1698
991.1796875	0.2	RANDOM	0	0.789314767469023	1	0	0	0	NONE	1702
992.869140625	0.2	RANDOM	0	0.590287030357104	1	0	0	0	NONE	1705
994.29931640625	0.2	COHERENT	1	0.590059132660826	1	0	0	180	LEFT	1709
995.71923828125	0.2	COHERENT	1	0.484815372680714	1	0	0	0	RIGHT	1713
997.0888671875	0.2	COHERENT	1	0.494586599615559	1	0	0	0	RIGHT	1717
998.4091796875	0.2	COHERENT	1	0.554482943894982	1	0	0	180	LEFT	1721
999.65869140625	0.2	RANDOM	0	0.568278753596132	1	0	0	0	NONE	1725
1001.06884765625	0.2	COHERENT	1	0.708922119358249	1	0	0	0	RIGHT	1729
1002.6083984375	0.2	COHERENT	1	0.654843052440356	1	0	0	0	RIGHT	1732
1004.08837890625	0.2	COHERENT	1	0.544739789126652	1	0	0	0	RIGHT	1736
1005.408203125	0.2	RANDOM	0	0.624623516023803	1	0	0	0	NONE	1740
1006.6982421875	0.2	COHERENT	1	0.718862382994757	1	0	0	0	RIGHT	1744
1008.22802734375	0.2	COHERENT	1	0.62318247813846	1	0	0	180	LEFT	1747
1009.75830078125	0.2	RANDOM	0	0.589892208917263	1	0	0	0	NONE	1750
1011.02783203125	0.2	RANDOM	0	0.672792033541555	1	0	0	0	NONE	1754
1012.36767578125	0.2	COHERENT	1	0.693611016363775	1	0	0	0	RIGHT	1758
1013.66796875	0.2	COHERENT	1	0.678328589237481	1	0	0	0	RIGHT	1762
1014.99755859375	0.2	RANDOM	0	0.718313617415788	1	0	0	0	NONE	1766
1016.58740234375	0.2	COHERENT	1	0.514067173978219	1	0	0	180	LEFT	1769
1018.00732421875	0.2	COHERENT	1	0.559850462888789	1	0	0	180	LEFT	1773
1019.267578125	0.2	COHERENT	1	0.697817917286557	1	0	0	180	LEFT	1777
1020.68701171875	0.2	COHERENT	1	0.624702902903209	1	0	0	0	RIGHT	1781
NaN	0.2	COHERENT	1	0.50433065993775	1	1	0	180	LEFT	NaN
NaN	0.2	RANDOM	0	0.654233312908218	1	1	0	0	NONE	NaN
1024.9267578125	0.2	COHERENT	1	0.840096713141975	1	0	0	0	RIGHT	1785
1026.44677734375	0.2	RANDOM	0	0.682795082239409	1	0	0	0	NONE	1788
1027.8466796875	0.2	COHERENT	1	0.754622399173968	1	0	0	0	RIGHT	1792
1029.32666015625	0.2	RANDOM	0	0.604572442791323	1	0	0	0	NONE	1796
1030.82666015625	0.2	RANDOM	0	0.579205165278381	1	0	0	0	NONE	1800
1032.146484375	0.2	RANDOM	0	0.465068867363698	1	0	0	0	NONE	1804
1033.22607421875	0.2	COHERENT	1	0.572862364883804	1	0	0	0	RIGHT	1808
1034.5361328125	0.2	COHERENT	1	0.515319554830057	1	0	0	0	RIGHT	1812
1035.666015625	0.2	COHERENT	1	0.852649801230655	1	0	0	180	LEFT	1816
1037.3662109375	0.2	RANDOM	0	0.489227230605138	1	0	0	0	NONE	1819
1038.5859375	0.2	COHERENT	1	1.08426449414264	1	0	0	180	LEFT	1823
1040.40576171875	0.2	COHERENT	1	0.625028902257782	1	0	0	0	RIGHT	1825
1041.92578125	0.2	COHERENT	1	0.599832774405513	1	0	0	0	RIGHT	1828
1043.20556640625	0.2	RANDOM	0	NaN	0	0	1	0	NONE	1832
1045.28515625	0.2	COHERENT	1	0.899303931008944	1	0	0	180	LEFT	1833
1046.89501953125	0.2	RANDOM	0	0.588288775057208	1	0	0	0	NONE	1836
1048.1552734375	0.2	RANDOM	0	0.643088964620347	1	0	0	0	NONE	1840
1049.46484375	0.2	COHERENT	1	NaN	0	0	1	180	LEFT	1844
1051.27490234375	0.2	RANDOM	0	0.873656535532518	1	0	0	0	NONE	1845
1052.77490234375	0.2	COHERENT	1	0.743472919415126	1	0	0	180	LEFT	1849
1054.384765625	0.2	RANDOM	0	0.539259075912469	1	0	0	0	NONE	1852
1055.78466796875	0.2	COHERENT	1	0.49408613023661	1	0	0	0	RIGHT	1856
1057.0146484375	0.2	RANDOM	0	0.634889779014429	1	0	0	0	NONE	1860
1058.46435546875	0.2	RANDOM	0	0.574806588809224	1	0	0	0	NONE	1864
1059.8544921875	0.2	COHERENT	1	0.579529655376518	1	0	0	0	RIGHT	1868
1061.30419921875	0.2	RANDOM	0	0.654322057176614	1	0	0	0	NONE	1872
1062.583984375	0.2	RANDOM	0	0.843126696026502	1	0	0	0	NONE	1876
1064.15380859375	0.2	COHERENT	1	0.614967898119176	1	0	0	180	LEFT	1879
1065.39404296875	0.2	RANDOM	0	0.622559457151056	1	0	0	0	NONE	1883
1066.70361328125	0.2	COHERENT	1	0.988648279900644	1	0	0	180	LEFT	1887
1068.37353515625	0.2	COHERENT	1	0.603366245181405	1	0	0	180	LEFT	1889
1069.66357421875	0.2	RANDOM	0	0.633250123004018	1	0	0	0	NONE	1893
1071.09326171875	0.2	COHERENT	1	0.739066192961218	1	0	0	180	LEFT	1897
1072.46337890625	0.2	RANDOM	0	0.582610952974392	1	0	0	0	NONE	1901
1073.9130859375	0.2	COHERENT	1	0.654728650815287	1	0	0	0	RIGHT	1905
1075.3330078125	0.2	RANDOM	0	0.959533519072465	1	0	0	0	NONE	1909
1076.962890625	0.2	RANDOM	0	0.563358276308463	1	0	0	0	NONE	1912
1078.35302734375	0.2	RANDOM	0	0.974123499421694	1	0	0	0	NONE	1916
1080.15283203125	0.2	RANDOM	0	0.894979308096936	1	0	0	0	NONE	1919
1081.83251953125	0.2	COHERENT	1	0.669618671311127	1	0	0	0	RIGHT	1922
1083.38232421875	0.2	RANDOM	0	0.674243334369748	1	0	0	0	NONE	1925
1084.83251953125	0.2	COHERENT	1	0.614077436920979	1	0	0	180	LEFT	1929
1086.10205078125	0.2	RANDOM	0	1.1780825804658	1	0	0	0	NONE	1933
1088.05224609375	0.2	RANDOM	0	0.774858507224508	1	0	0	0	NONE	1935
1089.6220703125	0.2	COHERENT	1	0.569741524771416	1	0	0	180	LEFT	1938
1090.82177734375	0.2	RANDOM	0	1.12342818505886	1	0	0	0	NONE	1942
1092.841796875	0.2	RANDOM	0	0.699041018566732	1	0	0	0	NONE	1944
1094.44140625	0.2	RANDOM	0	0.570117631433732	1	0	0	0	NONE	1947
1095.8115234375	0.2	RANDOM	0	0.579871350995745	1	0	0	0	NONE	1951
NaN	0.2	COHERENT	1	0.647789996045503	1	1	0	180	LEFT	NaN
NaN	0.2	COHERENT	1	0.609657429012259	1	1	0	180	LEFT	NaN
1099.861328125	0.2	COHERENT	1	0.788334354596827	1	0	0	0	RIGHT	1955
1101.451171875	0.2	RANDOM	0	0.689223306538679	1	0	0	0	NONE	1958
1102.77099609375	0.2	COHERENT	1	0.692989202780609	1	0	0	0	RIGHT	1962
1104.1806640625	0.2	RANDOM	0	NaN	0	0	1	0	NONE	1966
1106.15087890625	0.2	COHERENT	1	NaN	0	0	1	180	LEFT	1967
NaN	0.2	COHERENT	1	0.758321284437443	1	1	0	180	LEFT	NaN
1109.220703125	0.2	RANDOM	0	0.544486234073702	1	0	0	0	NONE	1970
1110.54052734375	0.2	COHERENT	1	0.584024824247081	1	0	0	0	RIGHT	1974
1111.7705078125	0.2	COHERENT	1	0.518968030933593	1	0	0	180	LEFT	1978
1113.0400390625	0.2	RANDOM	0	0.439861872866459	1	0	0	0	NONE	1982
1114.240234375	0.2	RANDOM	0	0.519536114993116	1	0	0	0	NONE	1986
1115.47998046875	0.2	RANDOM	0	0.544484121114692	1	0	0	0	NONE	1990
1116.8798828125	0.2	COHERENT	1	0.479256178140531	1	0	0	180	LEFT	1994
1118.10986328125	0.2	COHERENT	1	0.529033864692337	1	0	0	180	LEFT	1998
1119.3095703125	0.2	RANDOM	0	0.572958655433467	1	0	0	0	NONE	2002
1120.56982421875	0.2	COHERENT	1	0.55274458252461	1	0	0	180	LEFT	2006
1121.74951171875	0.2	RANDOM	0	0.973535795030784	1	0	0	0	NONE	2010
1123.3994140625	0.2	COHERENT	1	0.563460603883414	1	0	0	180	LEFT	2013
1124.66943359375	0.2	RANDOM	0	0.498262242332203	1	0	0	0	NONE	2017
NaN	0.2	COHERENT	1	0.60388844785075	1	1	0	180	LEFT	NaN
NaN	0.2	RANDOM	0	0.619984967807795	1	1	0	0	NONE	NaN
NaN	0.2	RANDOM	0	1.08970143892475	1	1	0	0	NONE	NaN
NaN	0.2	COHERENT	1	1.13410888982116	1	1	0	180	LEFT	NaN
NaN	0.2	COHERENT	1	0.787831772259324	1	1	0	180	LEFT	NaN
NaN	0.2	RANDOM	0	0.514924431538475	1	1	0	0	NONE	NaN
NaN	0.2	COHERENT	1	0.530885722133917	1	1	0	0	RIGHT	NaN
NaN	0.2	RANDOM	0	0.648581450032907	1	1	0	0	NONE	NaN
NaN	0.2	COHERENT	1	0.639457392186159	1	1	0	180	LEFT	NaN
NaN	0.2	COHERENT	1	0.659176127188402	1	1	0	0	RIGHT	NaN
NaN	0.2	RANDOM	0	0.569035494688706	1	1	0	0	NONE	NaN
NaN	0.2	RANDOM	0	0.649834736438606	1	1	0	0	NONE	NaN
NaN	0.2	COHERENT	1	0.779761778990178	1	1	0	0	RIGHT	NaN
NaN	0.2	RANDOM	0	1.1991361017117	1	1	0	0	NONE	NaN
1147.767578125	0.2	COHERENT	1	0.718025651319749	1	0	0	0	RIGHT	2020
1149.1376953125	0.2	COHERENT	1	0.628801741078405	1	0	0	0	RIGHT	2024
1150.63720703125	0.2	COHERENT	1	0.563944471443392	1	0	0	0	RIGHT	2028
1152.107421875	0.2	COHERENT	1	0.629572669180106	1	0	0	180	LEFT	2032
1153.5869140625	0.2	RANDOM	0	1.00950257931891	1	0	0	0	NONE	2036
NaN	0.2	RANDOM	0	0.843274301289512	1	1	0	0	NONE	NaN
