onset	duration	trial_type	trial_type_id	response_time	repsonse_accuracy	bad_epoch	outliers	event_num
59.95458984375	0.2	FACES	1	0.529564217345069	1	0	0	1
NaN	0.2	FACES	1	0.527617880460639	1	1	0	NaN
62.4345703125	0.2	SCRAMBLED	0	0.550418516762875	1	0	0	9
63.89453125	0.2	SCRAMBLED	0	0.506046986166439	1	0	0	17
NaN	0.2	SCRAMBLED	0	0.583112931609321	1	1	0	NaN
66.4443359375	0.2	SCRAMBLED	0	0.694915919333653	1	0	0	25
68.09423828125	0.2	SCRAMBLED	0	0.807665512588756	1	0	0	31
69.744140625	0.2	FACES	1	0.725405914473413	1	0	0	37
71.423828125	0.2	FACES	1	0.7709546649603	1	0	0	43
72.91357421875	0.2	SCRAMBLED	0	0.835025612079335	1	0	0	51
74.68359375	0.2	SCRAMBLED	0	0.811887204224149	1	0	0	56
76.2333984375	0.2	FACES	1	0.765639064381503	1	0	0	62
77.70361328125	0.2	SCRAMBLED	0	0.795443253473422	1	0	0	70
79.3134765625	0.2	FACES	1	0.690226358255131	1	0	0	76
80.703125	0.2	FACES	1	0.682135235399073	1	0	0	84
82.18310546875	0.2	SCRAMBLED	0	0.802893847969244	1	0	0	92
83.6728515625	0.2	SCRAMBLED	0	0.782796591494844	1	0	0	100
85.1728515625	0.2	SCRAMBLED	0	0.816586424542038	1	0	0	107
86.8427734375	0.2	FACES	1	0.669355155166159	1	0	0	113
88.16259765625	0.2	FACES	1	0.649793684668111	1	0	0	121
89.57275390625	0.2	FACES	1	0.809933622909739	1	0	0	129
91.21240234375	0.2	FACES	1	0.836691227296797	1	0	0	135
92.76220703125	0.2	SCRAMBLED	0	0.796466529223835	1	0	0	141
94.412109375	0.2	FACES	1	0.650205711629496	1	0	0	147
95.86181640625	0.2	SCRAMBLED	0	0.871146944208704	1	0	0	155
97.4521484375	0.2	SCRAMBLED	0	0.815938651751821	1	0	0	161
NaN	0.2	SCRAMBLED	0	0.695683225219909	1	1	0	NaN
NaN	0.2	SCRAMBLED	0	0.76534626866578	1	1	0	NaN
101.9814453125	0.2	SCRAMBLED	0	0.781377588751639	1	0	0	168
103.6416015625	0.2	FACES	1	NaN	0	0	1	174
105.521484375	0.2	FACES	1	0.954635076926934	1	0	0	176
107.4111328125	0.2	FACES	1	0.756690382113447	1	0	0	181
109.02099609375	0.2	SCRAMBLED	0	0.938028126499376	1	0	0	187
110.77099609375	0.2	SCRAMBLED	0	0.766943665500548	1	0	0	192
112.33056640625	0.2	SCRAMBLED	0	0.802000670109919	1	0	0	198
113.880859375	0.2	SCRAMBLED	0	0.748942464131687	1	0	0	204
115.33056640625	0.2	FACES	1	0.850674486626303	1	0	0	212
117.05029296875	0.2	SCRAMBLED	0	0.668432094032141	1	0	0	217
118.55029296875	0.2	FACES	1	0.578105219309691	1	0	0	224
119.97998046875	0.2	SCRAMBLED	0	0.669105222328653	1	0	0	232
121.43017578125	0.2	FACES	1	0.587878559204	1	0	0	240
122.75	0.2	FACES	1	0.515667891176236	1	0	0	248
123.98974609375	0.2	SCRAMBLED	0	0.706459314978929	1	0	0	256
125.349609375	0.2	FACES	1	0.620127441599834	1	0	0	264
126.83984375	0.2	SCRAMBLED	0	0.527197099812838	1	0	0	272
128.26953125	0.2	SCRAMBLED	0	0.557098485009192	1	0	0	280
129.71923828125	0.2	FACES	1	0.460874040490125	1	0	0	288
131.01953125	0.2	FACES	1	0.637647190217649	1	0	0	296
132.439453125	0.2	SCRAMBLED	0	0.702544002366267	1	0	0	304
133.92919921875	0.2	FACES	1	0.59606718001487	1	0	0	312
135.37890625	0.2	FACES	1	0.474251786205059	1	0	0	320
136.69873046875	0.2	FACES	1	0.526815559828719	1	0	0	328
138.02880859375	0.2	SCRAMBLED	0	0.589714418528274	1	0	0	336
139.478515625	0.2	SCRAMBLED	0	0.489588546556661	1	0	0	344
140.8984375	0.2	FACES	1	0.61637241200242	1	0	0	352
142.19873046875	0.2	FACES	1	0.644914862854421	1	0	0	360
143.63818359375	0.2	FACES	1	0.586857698263884	1	0	0	368
144.9384765625	0.2	FACES	1	0.57990515833626	1	0	0	376
146.318359375	0.2	FACES	1	0.673641141118424	1	0	0	384
147.93798828125	0.2	FACES	1	0.642429117779102	1	0	0	390
149.5078125	0.2	SCRAMBLED	0	0.696341562805173	1	0	0	396
151.15771484375	0.2	SCRAMBLED	0	0.604075293776987	1	0	0	402
152.677734375	0.2	FACES	1	0.557875751987012	1	0	0	408
NaN	0.2	FACES	1	0.548636085110047	1	1	0	NaN
155.40771484375	0.2	SCRAMBLED	0	0.814474069467906	1	0	0	416
157.1572265625	0.2	SCRAMBLED	0	0.569421260591298	1	0	0	421
158.45703125	0.2	SCRAMBLED	0	0.681118902227354	1	0	0	429
159.8271484375	0.2	FACES	1	0.579941078635784	1	0	0	437
161.1669921875	0.2	FACES	1	0.538876932225321	1	0	0	445
162.51708984375	0.2	SCRAMBLED	0	0.564590734978083	1	0	0	453
163.94677734375	0.2	FACES	1	0.481390568355891	1	0	0	461
165.11669921875	0.2	SCRAMBLED	0	0.493221326394632	1	0	0	469
166.36669921875	0.2	FACES	1	0.691956871492948	1	0	0	477
167.88671875	0.2	FACES	1	NaN	0	0	1	483
169.28662109375	0.2	SCRAMBLED	0	0.85869407073551	1	0	0	491
171.05615234375	0.2	SCRAMBLED	0	0.929158529259439	1	0	0	496
172.92626953125	0.2	SCRAMBLED	0	0.662206713775049	1	0	0	501
174.5458984375	0.2	FACES	1	0.562950777115475	1	0	0	507
176.07568359375	0.2	SCRAMBLED	0	0.626815559828174	1	0	0	513
177.6259765625	0.2	SCRAMBLED	0	0.6443715305968	1	0	0	519
179.015625	0.2	SCRAMBLED	0	0.663917304830647	1	0	0	527
180.515625	0.2	FACES	1	0.625337696090355	1	0	0	534
181.79541015625	0.2	FACES	1	0.652135144842759	1	0	0	542
183.34521484375	0.2	SCRAMBLED	0	0.569887922630187	1	0	0	548
184.8154296875	0.2	SCRAMBLED	0	0.64165094524742	1	0	0	556
186.115234375	0.2	SCRAMBLED	0	0.71666369846298	1	0	0	564
187.65478515625	0.2	FACES	1	0.721370465062137	1	0	0	570
189.11474609375	0.2	FACES	1	0.661896108835208	1	0	0	578
NaN	0.2	SCRAMBLED	0	0.550107609972656	1	1	0	NaN
191.7548828125	0.2	FACES	1	0.527866304042618	1	0	0	586
193.0244140625	0.2	SCRAMBLED	0	0.570707448783651	1	0	0	594
194.45458984375	0.2	FACES	1	0.561587616854013	1	0	0	602
195.82421875	0.2	FACES	1	0.720348396716872	1	0	0	610
197.47412109375	0.2	SCRAMBLED	0	0.532132065960468	1	0	0	616
198.7939453125	0.2	FACES	1	0.506878586370476	1	0	0	624
200.09423828125	0.2	SCRAMBLED	0	0.504817244158403	1	0	0	632
201.494140625	0.2	FACES	1	0.533605100078603	1	0	0	640
202.94384765625	0.2	SCRAMBLED	0	0.726418927280974	1	0	0	648
204.6337890625	0.2	FACES	1	0.643137562671654	1	0	0	654
206.1337890625	0.2	SCRAMBLED	0	0.629927042552481	1	0	0	661
207.603515625	0.2	FACES	1	0.628821663260169	1	0	0	669
209.05322265625	0.2	FACES	1	0.766613742080153	1	0	0	677
210.783203125	0.2	FACES	1	0.713426645617801	1	0	0	682
212.1533203125	0.2	FACES	1	0.620155513765894	1	0	0	690
213.533203125	0.2	FACES	1	0.82183924005858	1	0	0	698
215.052734375	0.2	FACES	1	0.652875887820301	1	0	0	704
216.44287109375	0.2	FACES	1	0.574423237716474	1	0	0	712
217.7529296875	0.2	SCRAMBLED	0	0.681428601613334	1	0	0	720
219.17236328125	0.2	SCRAMBLED	0	0.48335471446353	1	0	0	728
220.49267578125	0.2	SCRAMBLED	0	0.503148006724587	1	0	0	736
221.8623046875	0.2	SCRAMBLED	0	0.71913495467652	1	0	0	744
223.3623046875	0.2	FACES	1	0.546818940561934	1	0	0	751
224.84228515625	0.2	SCRAMBLED	0	0.58160729755582	1	0	0	759
226.3818359375	0.2	FACES	1	0.742435154804298	1	0	0	765
228.06201171875	0.2	SCRAMBLED	0	0.630205349408243	1	0	0	771
229.6318359375	0.2	SCRAMBLED	0	0.594796688087627	1	0	0	777
230.931640625	0.2	FACES	1	0.799859035464578	1	0	0	785
232.70166015625	0.2	FACES	1	0.763597644352558	1	0	0	790
234.42138671875	0.2	FACES	1	0.934120662020177	1	0	0	795
236.29150390625	0.2	FACES	1	0.837186867055607	1	0	0	800
237.9609375	0.2	FACES	1	0.649030302846768	1	0	0	806
239.47119140625	0.2	FACES	1	0.718653803778579	1	0	0	812
241.11083984375	0.2	SCRAMBLED	0	0.999523075019169	1	0	0	818
242.791015625	0.2	FACES	1	0.697181011141765	1	0	0	823
244.29052734375	0.2	FACES	1	0.523123617143938	1	0	0	830
245.58056640625	0.2	SCRAMBLED	0	0.975145265915671	1	0	0	838
247.3505859375	0.2	SCRAMBLED	0	0.662677299879761	1	0	0	843
248.85009765625	0.2	SCRAMBLED	0	0.943445149099716	1	0	0	850
250.5	0.2	SCRAMBLED	0	0.607316572539276	1	0	0	856
251.9501953125	0.2	SCRAMBLED	0	0.793198385698815	1	0	0	864
253.60009765625	0.2	SCRAMBLED	0	0.619922182747359	1	0	0	870
255.0498046875	0.2	FACES	1	0.618680668540037	1	0	0	878
256.349609375	0.2	SCRAMBLED	0	0.672452149029596	1	0	0	886
257.91943359375	0.2	SCRAMBLED	0	0.643231136559734	1	0	0	892
259.3896484375	0.2	FACES	1	0.738119587430447	1	0	0	900
NaN	0.2	SCRAMBLED	0	0.732906314426145	1	1	0	NaN
262.4892578125	0.2	SCRAMBLED	0	0.904777097942315	1	0	0	907
264.33935546875	0.2	FACES	1	0.623457162779232	1	0	0	912
NaN	0.2	SCRAMBLED	0	0.543356706682061	1	1	0	NaN
267.15869140625	0.2	FACES	1	1.12287277875203	1	0	0	920
269.07861328125	0.2	SCRAMBLED	0	0.569880074496723	1	0	0	924
270.46875	0.2	FACES	1	0.563545424085532	1	0	0	932
271.818359375	0.2	FACES	1	0.528599198886695	1	0	0	940
272.99853515625	0.2	SCRAMBLED	0	0.508395087069403	1	0	0	948
274.24853515625	0.2	SCRAMBLED	0	0.512329416310422	1	0	0	956
275.568359375	0.2	FACES	1	0.543120357149746	1	0	0	964
276.7880859375	0.2	FACES	1	0.676656333292158	1	0	0	972
278.26806640625	0.2	SCRAMBLED	0	0.569673004536526	1	0	0	980
279.60791015625	0.2	FACES	1	0.61262100462136	1	0	0	988
281.05810546875	0.2	SCRAMBLED	0	NaN	0	0	1	996
385.06982421875	0.2	SCRAMBLED	0	0.546840975703162	1	0	0	998
386.43994140625	0.2	SCRAMBLED	0	0.457009438889145	1	0	0	1006
387.76953125	0.2	SCRAMBLED	0	0.433756629407981	1	0	0	1014
389.11962890625	0.2	FACES	1	0.462545692733329	1	0	0	1022
390.40966796875	0.2	SCRAMBLED	0	0.524107954082865	1	0	0	1030
NaN	0.2	FACES	1	0.652326518538757	1	1	0	NaN
NaN	0.2	FACES	1	0.557029361071727	1	1	0	NaN
394.529296875	0.2	SCRAMBLED	0	0.623823610201725	1	0	0	1038
395.92919921875	0.2	FACES	1	0.506656423847744	1	0	0	1046
397.22900390625	0.2	SCRAMBLED	0	0.543569209964517	1	0	0	1054
398.6787109375	0.2	SCRAMBLED	0	NaN	0	0	1	1062
400.5986328125	0.2	SCRAMBLED	0	0.685707644986906	1	0	0	1064
401.978515625	0.2	FACES	1	0.610590149386553	1	0	0	1072
403.32861328125	0.2	FACES	1	0.454760345197428	1	0	0	1080
404.54833984375	0.2	FACES	1	0.560586376245737	1	0	0	1088
405.9482421875	0.2	SCRAMBLED	0	0.492383387313566	1	0	0	1096
407.09814453125	0.2	SCRAMBLED	0	0.475250008301373	1	0	0	1104
408.318359375	0.2	SCRAMBLED	0	0.502654479924786	1	0	0	1112
409.658203125	0.2	FACES	1	0.506858060484774	1	0	0	1120
410.88818359375	0.2	FACES	1	0.574849451686532	1	0	0	1128
412.35791015625	0.2	SCRAMBLED	0	0.631415169232241	1	0	0	1136
413.95751953125	0.2	SCRAMBLED	0	0.544324743652396	1	0	0	1142
415.44775390625	0.2	SCRAMBLED	0	0.567278116690431	1	0	0	1150
416.9775390625	0.2	FACES	1	0.56689386004382	1	0	0	1156
418.2275390625	0.2	SCRAMBLED	0	0.596550745724016	1	0	0	1164
419.71728515625	0.2	FACES	1	0.516975510808152	1	0	0	1172
421.0673828125	0.2	SCRAMBLED	0	0.55235187404287	1	0	0	1180
422.56689453125	0.2	FACES	1	0.493280489240533	1	0	0	1187
423.7470703125	0.2	FACES	1	0.697608432516063	1	0	0	1195
425.14697265625	0.2	SCRAMBLED	0	0.597873457917558	1	0	0	1203
426.61669921875	0.2	SCRAMBLED	0	0.577746318169375	1	0	0	1211
428.056640625	0.2	SCRAMBLED	0	0.478619573846117	1	0	0	1219
429.1865234375	0.2	FACES	1	0.562469626217535	1	0	0	1227
430.46630859375	0.2	SCRAMBLED	0	0.708289740981854	1	0	0	1235
431.95654296875	0.2	SCRAMBLED	0	0.483094216831887	1	0	0	1243
433.13623046875	0.2	SCRAMBLED	0	0.581853004476216	1	0	0	1251
434.55615234375	0.2	SCRAMBLED	0	0.493785788238711	1	0	0	1259
435.80615234375	0.2	FACES	1	0.479556218287144	1	0	0	1267
437.0458984375	0.2	SCRAMBLED	0	0.467355088759177	1	0	0	1275
438.3759765625	0.2	SCRAMBLED	0	0.459309243590724	1	0	0	1283
439.49560546875	0.2	SCRAMBLED	0	0.567061689340335	1	0	0	1291
440.8955078125	0.2	SCRAMBLED	0	0.662981264093105	1	0	0	1299
442.32568359375	0.2	SCRAMBLED	0	0.416506735810799	1	0	0	1307
443.685546875	0.2	FACES	1	0.459582720826802	1	0	0	1315
444.96533203125	0.2	SCRAMBLED	0	0.471335903093859	1	0	0	1323
446.14501953125	0.2	SCRAMBLED	0	0.457779461436985	1	0	0	1331
447.365234375	0.2	FACES	1	0.422079211805794	1	0	0	1339
448.48486328125	0.2	SCRAMBLED	0	0.46277932560406	1	0	0	1347
449.68505859375	0.2	FACES	1	0.51678655192336	1	0	0	1355
451.0546875	0.2	FACES	1	0.413597191575718	1	0	0	1363
452.15478515625	0.2	FACES	1	0.397396231084713	1	0	0	1371
453.384765625	0.2	SCRAMBLED	0	0.533289967370365	1	0	0	1379
454.6845703125	0.2	FACES	1	0.399111651759995	1	0	0	1387
455.8046875	0.2	FACES	1	0.410058589328401	1	0	0	1395
456.92431640625	0.2	FACES	1	0.382948724527523	1	0	0	1403
458.1044921875	0.2	FACES	1	0.353819172987642	1	0	0	1411
459.14404296875	0.2	FACES	1	0.387544711717055	1	0	0	1419
460.3642578125	0.2	FACES	1	0.36836025343473	1	0	0	1427
461.44384765625	0.2	FACES	1	0.602100884726497	1	0	0	1435
462.833984375	0.2	FACES	1	0.509172354048133	1	0	0	1443
464.013671875	0.2	FACES	1	0.567010676478276	1	0	0	1451
465.24365234375	0.2	FACES	1	0.601791789042181	1	0	0	1459
466.513671875	0.2	SCRAMBLED	0	0.465597408909161	1	0	0	1467
467.66357421875	0.2	SCRAMBLED	0	0.4725267062895	1	0	0	1475
468.95361328125	0.2	SCRAMBLED	0	0.508317209445522	1	0	0	1483
470.16357421875	0.2	SCRAMBLED	0	0.44823945256303	1	0	0	1491
471.5234375	0.2	FACES	1	0.543949844395684	1	0	0	1499
472.8232421875	0.2	FACES	1	0.511892637546225	1	0	0	1507
473.98291015625	0.2	SCRAMBLED	0	0.607382677963869	1	0	0	1515
475.39306640625	0.2	SCRAMBLED	0	0.533527524306919	1	0	0	1523
476.65283203125	0.2	FACES	1	0.457313704952867	1	0	0	1531
477.892578125	0.2	SCRAMBLED	0	0.474089088378605	1	0	0	1539
479.12255859375	0.2	FACES	1	0.462033451155548	1	0	0	1547
480.3427734375	0.2	FACES	1	0.561794384962923	1	0	0	1555
481.74267578125	0.2	SCRAMBLED	0	0.434724364527938	1	0	0	1563
482.892578125	0.2	FACES	1	0.652908487755667	1	0	0	1571
484.38232421875	0.2	SCRAMBLED	0	0.513289303296915	1	0	0	1579
485.58203125	0.2	FACES	1	0.458223182780785	1	0	0	1587
486.85205078125	0.2	SCRAMBLED	0	NaN	0	0	1	1595
488.73193359375	0.2	FACES	1	0.562578292669059	1	0	0	1597
489.98193359375	0.2	SCRAMBLED	0	0.662580103776236	1	0	0	1605
491.62158203125	0.2	SCRAMBLED	0	0.548332422748899	1	0	0	1611
492.8515625	0.2	SCRAMBLED	0	0.562290628424307	1	0	0	1619
494.13134765625	0.2	FACES	1	0.398064227910254	1	0	0	1627
495.271484375	0.2	FACES	1	0.456835572566888	1	0	0	1635
496.62158203125	0.2	SCRAMBLED	0	0.453555656843491	1	0	0	1643
497.80126953125	0.2	SCRAMBLED	0	0.582554808641362	1	0	0	1651
499.041015625	0.2	FACES	1	0.523141426368056	1	0	0	1659
500.4111328125	0.2	FACES	1	0.477284787602912	1	0	0	1667
501.8408203125	0.2	FACES	1	0.492097534176537	1	0	0	1675
503.041015625	0.2	FACES	1	0.502615842964588	1	0	0	1683
504.33056640625	0.2	FACES	1	0.407775990147456	1	0	0	1691
505.61083984375	0.2	SCRAMBLED	0	NaN	0	0	1	1699
507.45068359375	0.2	SCRAMBLED	0	0.553081448523699	1	0	0	1701
508.66064453125	0.2	FACES	1	0.532162854789021	1	0	0	1709
509.93017578125	0.2	SCRAMBLED	0	0.452804047221434	1	0	0	1717
511.2705078125	0.2	FACES	1	NaN	0	0	1	1725
513.27001953125	0.2	SCRAMBLED	0	0.64860922034768	1	0	0	1727
514.7998046875	0.2	SCRAMBLED	0	0.61348248809918	1	0	0	1733
516.31982421875	0.2	FACES	1	0.542883403916676	1	0	0	1739
517.78955078125	0.2	SCRAMBLED	0	0.728054659225563	1	0	0	1747
519.41943359375	0.2	SCRAMBLED	0	0.50880590662473	1	0	0	1753
520.61962890625	0.2	SCRAMBLED	0	0.582584390064767	1	0	0	1761
522.15966796875	0.2	FACES	1	0.552494649686196	1	0	0	1767
523.439453125	0.2	FACES	1	0.587306249226458	1	0	0	1775
524.70947265625	0.2	SCRAMBLED	0	0.712234031314438	1	0	0	1783
526.35888671875	0.2	SCRAMBLED	0	0.544354325075801	1	0	0	1789
527.7490234375	0.2	SCRAMBLED	0	0.802751676029402	1	0	0	1797
529.2587890625	0.2	FACES	1	0.562474153986841	1	0	0	1803
530.5986328125	0.2	SCRAMBLED	0	0.613323412489081	1	0	0	1811
532.048828125	0.2	FACES	1	0.516271895535283	1	0	0	1819
533.228515625	0.2	FACES	1	0.502042627434093	1	0	0	1827
534.58837890625	0.2	SCRAMBLED	0	0.569856228247772	1	0	0	1835
536.03857421875	0.2	SCRAMBLED	0	0.404770457213999	1	0	0	1843
537.34814453125	0.2	FACES	1	0.543505217498932	1	0	0	1851
538.68798828125	0.2	FACES	1	0.486141405238413	1	0	0	1859
539.8681640625	0.2	SCRAMBLED	0	0.807174702450538	1	0	0	1867
541.63818359375	0.2	FACES	1	0.432006797690519	1	0	0	1872
542.9580078125	0.2	SCRAMBLED	0	0.532784970222565	1	0	0	1880
544.2578125	0.2	FACES	1	0.572576209894578	1	0	0	1888
545.677734375	0.2	FACES	1	0.543604828412754	1	0	0	1896
546.8974609375	0.2	FACES	1	0.481298805574625	1	0	0	1904
548.27734375	0.2	FACES	1	0.452838458264523	1	0	0	1912
549.447265625	0.2	SCRAMBLED	0	0.587887614740794	1	0	0	1920
550.71728515625	0.2	SCRAMBLED	0	0.502828346247952	1	0	0	1928
551.89697265625	0.2	SCRAMBLED	0	0.493592905288097	1	0	0	1936
553.17724609375	0.2	SCRAMBLED	0	0.433543220572574	1	0	0	1944
554.44677734375	0.2	FACES	1	0.499104407330378	1	0	0	1952
555.6669921875	0.2	SCRAMBLED	0	0.577112732387832	1	0	0	1960
557.1669921875	0.2	SCRAMBLED	0	0.35401990407172	1	0	0	1967
NaN	0.2	FACES	1	NaN	0	1	1	NaN
559.5166015625	0.2	FACES	1	0.522725777191226	1	0	0	1975
560.95654296875	0.2	FACES	1	0.463513427853286	1	0	0	1983
562.1064453125	0.2	FACES	1	0.42736372170566	1	0	0	1991
563.4560546875	0.2	FACES	1	0.378281198591139	1	0	0	1999
564.6259765625	0.2	FACES	1	0.478053904596891	1	0	0	2007
565.85595703125	0.2	SCRAMBLED	0	0.537859995351027	1	0	0	2015
567.255859375	0.2	FACES	1	0.412736915503046	1	0	0	2023
568.52587890625	0.2	FACES	1	0.452565282879732	1	0	0	2031
569.7255859375	0.2	FACES	1	0.432381093245567	1	0	0	2039
571.02587890625	0.2	FACES	1	0.464088152640215	1	0	0	2047
572.36572265625	0.2	SCRAMBLED	0	0.585031196326781	1	0	0	2055
573.66552734375	0.2	SCRAMBLED	0	0.537972284017997	1	0	0	2063
575.04541015625	0.2	SCRAMBLED	0	0.463659825711147	1	0	0	2071
576.18505859375	0.2	FACES	1	0.477281467238754	1	0	0	2079
577.43505859375	0.2	SCRAMBLED	0	0.62836949008215	1	0	0	2087
578.78515625	0.2	FACES	1	0.51623476783152	1	0	0	2095
580.06494140625	0.2	SCRAMBLED	0	0.477874906803663	1	0	0	2103
581.4248046875	0.2	FACES	1	0.618935430998135	1	0	0	2111
582.9248046875	0.2	FACES	1	0.588616887370335	1	0	0	2118
690.2666015625	0.2	FACES	1	0.511813854368484	1	0	0	2122
691.65625	0.2	FACES	1	0.408786286293434	1	0	0	2130
692.92626953125	0.2	FACES	1	0.432535037383786	1	0	0	2138
694.2763671875	0.2	SCRAMBLED	0	0.548476103945177	1	0	0	2146
695.60595703125	0.2	SCRAMBLED	0	0.413253081146649	1	0	0	2154
696.755859375	0.2	SCRAMBLED	0	0.443066325776272	1	0	0	2162
698.076171875	0.2	SCRAMBLED	0	0.485022442640002	1	0	0	2170
699.27587890625	0.2	FACES	1	0.422747812333	1	0	0	2178
700.36572265625	0.2	SCRAMBLED	0	0.518345915499594	1	0	0	2186
701.595703125	0.2	SCRAMBLED	0	0.526512803021433	1	0	0	2194
702.82568359375	0.2	SCRAMBLED	0	0.507439727851306	1	0	0	2202
704.265625	0.2	FACES	1	0.508096858030513	1	0	0	2210
705.58544921875	0.2	SCRAMBLED	0	0.498956802067369	1	0	0	2218
706.91552734375	0.2	SCRAMBLED	0	0.464872362197639	1	0	0	2226
708.10498046875	0.2	FACES	1	0.522195726390237	1	0	0	2234
709.455078125	0.2	FACES	1	0.427463332618572	1	0	0	2242
710.8349609375	0.2	SCRAMBLED	0	0.449035132467543	1	0	0	2250
712.1748046875	0.2	FACES	1	0.477046325111587	1	0	0	2258
713.45458984375	0.2	SCRAMBLED	0	NaN	0	0	1	2266
715.2548828125	0.2	FACES	1	0.519707566505531	1	0	0	2268
716.50439453125	0.2	SCRAMBLED	0	0.482526434623651	1	0	0	2276
717.95458984375	0.2	FACES	1	0.533420970814404	1	0	0	2284
719.17431640625	0.2	SCRAMBLED	0	NaN	0	0	1	2292
720.994140625	0.2	SCRAMBLED	0	0.613973901940881	1	0	0	2294
722.494140625	0.2	SCRAMBLED	0	0.451726438245714	1	0	0	2301
723.7138671875	0.2	FACES	1	0.502577507855676	1	0	0	2309
725.09375	0.2	SCRAMBLED	0	0.764510140692437	1	0	0	2317
726.78369140625	0.2	SCRAMBLED	0	0.459239515951595	1	0	0	2323
728.11376953125	0.2	FACES	1	0.57815623217175	1	0	0	2331
729.46337890625	0.2	FACES	1	0.45874115953211	1	0	0	2339
730.88330078125	0.2	SCRAMBLED	0	0.449712486681165	1	0	0	2347
732.00341796875	0.2	FACES	1	0.602566037508041	1	0	0	2355
733.38330078125	0.2	FACES	1	0.578334324412026	1	0	0	2363
NaN	0.2	FACES	1	0.476222874891391	1	1	0	NaN
NaN	0.2	SCRAMBLED	0	0.572073627557984	1	1	0	NaN
737.47314453125	0.2	SCRAMBLED	0	0.373898922089211	1	0	0	2370
738.74267578125	0.2	FACES	1	0.933680261040536	1	0	0	2378
740.5625	0.2	FACES	1	0.438462188602898	1	0	0	2383
741.79248046875	0.2	SCRAMBLED	0	0.503277199061813	1	0	0	2391
743.142578125	0.2	FACES	1	0.543326521556992	1	0	0	2399
744.58251953125	0.2	SCRAMBLED	0	0.412966624306137	1	0	0	2407
745.83251953125	0.2	FACES	1	0.57778525698177	1	0	0	2415
747.2822265625	0.2	SCRAMBLED	0	0.413551612035917	1	0	0	2423
748.56201171875	0.2	SCRAMBLED	0	0.479365146442433	1	0	0	2431
749.80224609375	0.2	SCRAMBLED	0	0.438247572361433	1	0	0	2439
750.9521484375	0.2	FACES	1	0.790253524867694	1	0	0	2447
752.48193359375	0.2	SCRAMBLED	0	0.471945340775164	1	0	0	2453
753.75146484375	0.2	FACES	1	0.553725900950667	1	0	0	2461
755.00146484375	0.2	SCRAMBLED	0	0.452675156735495	1	0	0	2469
756.4013671875	0.2	FACES	1	0.553464799616449	1	0	0	2477
757.72119140625	0.2	FACES	1	0.520395183661094	1	0	0	2485
759.021484375	0.2	FACES	1	0.537874786063185	1	0	0	2493
760.27099609375	0.2	FACES	1	0.562975227067909	1	0	0	2501
761.611328125	0.2	FACES	1	0.417888912702438	1	0	0	2509
762.9111328125	0.2	SCRAMBLED	0	0.523633142060135	1	0	0	2517
764.3310546875	0.2	SCRAMBLED	0	0.523478896069719	1	0	0	2525
765.5908203125	0.2	SCRAMBLED	0	0.852259205708833	1	0	0	2533
767.380859375	0.2	SCRAMBLED	0	0.863894665986663	1	0	0	2538
769.1005859375	0.2	FACES	1	0.833510620635934	1	0	0	2543
770.7705078125	0.2	FACES	1	NaN	0	0	1	2549
772.650390625	0.2	SCRAMBLED	0	NaN	0	0	1	2551
774.5703125	0.2	SCRAMBLED	0	0.982770330437233	1	0	0	2553
776.43994140625	0.2	FACES	1	1.00877692890481	1	0	0	2558
778.19970703125	0.2	FACES	1	1.05167934944984	1	0	0	2562
780.01953125	0.2	SCRAMBLED	0	0.877402509591775	1	0	0	2566
781.8095703125	0.2	SCRAMBLED	0	0.826969805818408	1	0	0	2571
783.32958984375	0.2	SCRAMBLED	0	1.07292575364772	1	0	0	2577
785.3291015625	0.2	FACES	1	0.788777472236688	1	0	0	2581
787.029296875	0.2	SCRAMBLED	0	0.648482140971282	1	0	0	2587
788.64892578125	0.2	SCRAMBLED	0	0.818387269121558	1	0	0	2593
790.31884765625	0.2	FACES	1	0.743050025807861	1	0	0	2599
791.7685546875	0.2	SCRAMBLED	0	0.756814442978794	1	0	0	2607
793.46875	0.2	FACES	1	0.858711578108341	1	0	0	2613
795.24853515625	0.2	FACES	1	0.687446911911138	1	0	0	2618
796.7685546875	0.2	FACES	1	0.988244704773933	1	0	0	2624
798.41845703125	0.2	FACES	1	NaN	0	0	1	2630
NaN	0.2	FACES	1	0.446883234879351	1	1	0	NaN
801.3681640625	0.2	FACES	1	0.607433690825928	1	0	0	2636
802.658203125	0.2	SCRAMBLED	0	0.647505048462335	1	0	0	2644
804.0576171875	0.2	FACES	1	0.582252957387027	1	0	0	2652
805.3779296875	0.2	SCRAMBLED	0	0.643206082906545	1	0	0	2660
806.857421875	0.2	SCRAMBLED	0	0.605570061185063	1	0	0	2668
808.25732421875	0.2	SCRAMBLED	0	0.528662587650615	1	0	0	2676
809.52734375	0.2	SCRAMBLED	0	0.680663710536464	1	0	0	2684
810.947265625	0.2	SCRAMBLED	0	0.502464313635755	1	0	0	2692
812.3671875	0.2	SCRAMBLED	0	0.509128283764767	1	0	0	2700
813.5869140625	0.2	SCRAMBLED	0	0.556740489421827	1	0	0	2708
815.0869140625	0.2	FACES	1	0.508932684151659	1	0	0	2715
816.31689453125	0.2	SCRAMBLED	0	0.492482696376101	1	0	0	2723
817.69677734375	0.2	SCRAMBLED	0	0.693703382847161	1	0	0	2731
819.13671875	0.2	FACES	1	0.647477278146653	1	0	0	2739
820.63671875	0.2	SCRAMBLED	0	0.538246968659223	1	0	0	2746
821.88671875	0.2	FACES	1	0.672057931292329	1	0	0	2754
823.28662109375	0.2	SCRAMBLED	0	0.532897258888624	1	0	0	2762
824.486328125	0.2	SCRAMBLED	0	0.607698414375591	1	0	0	2770
825.92626953125	0.2	FACES	1	0.54651075043239	1	0	0	2778
827.15625	0.2	FACES	1	0.587395295347051	1	0	0	2786
828.576171875	0.2	SCRAMBLED	0	0.523087998695701	1	0	0	2794
829.755859375	0.2	SCRAMBLED	0	0.528021153735608	1	0	0	2802
831.17578125	0.2	SCRAMBLED	0	0.504925005056066	1	0	0	2810
832.5654296875	0.2	SCRAMBLED	0	0.603555807769226	1	0	0	2818
834.015625	0.2	SCRAMBLED	0	0.543500991580913	1	0	0	2826
835.49560546875	0.2	SCRAMBLED	0	0.472393288035164	1	0	0	2834
836.79541015625	0.2	FACES	1	0.55815556809921	1	0	0	2842
838.3154296875	0.2	FACES	1	0.483992224311805	1	0	0	2848
839.50537109375	0.2	FACES	1	0.562831847722009	1	0	0	2856
841.01513671875	0.2	FACES	1	0.483661093486262	1	0	0	2862
842.1748046875	0.2	SCRAMBLED	0	0.537479964623344	1	0	0	2870
843.375	0.2	SCRAMBLED	0	0.517314187914963	1	0	0	2878
844.634765625	0.2	FACES	1	0.572143958899687	1	0	0	2886
845.95458984375	0.2	FACES	1	0.494934030408331	1	0	0	2894
847.12451171875	0.2	FACES	1	0.556956916770105	1	0	0	2902
848.4443359375	0.2	SCRAMBLED	0	0.53763209765566	1	0	0	2910
849.64453125	0.2	SCRAMBLED	0	0.467468282980008	1	0	0	2918
850.994140625	0.2	FACES	1	0.468394060774699	1	0	0	2926
852.34423828125	0.2	FACES	1	0.568173709359144	1	0	0	2934
853.88427734375	0.2	SCRAMBLED	0	0.669334025578792	1	0	0	2940
855.244140625	0.2	FACES	1	0.461864112602598	1	0	0	2948
856.56396484375	0.2	FACES	1	0.563669484951788	1	0	0	2956
858.0634765625	0.2	FACES	1	NaN	0	0	1	2963
859.3134765625	0.2	FACES	1	0.402228265955273	1	0	0	2971
860.6533203125	0.2	SCRAMBLED	0	0.64403587200286	1	0	0	2979
862.00341796875	0.2	FACES	1	0.661903051414811	1	0	0	2987
863.4033203125	0.2	FACES	1	0.697717702670161	1	0	0	2995
864.75341796875	0.2	FACES	1	0.682539716079191	1	0	0	3003
866.203125	0.2	FACES	1	0.672460299014347	1	0	0	3011
867.703125	0.2	FACES	1	0.638181466936658	1	0	0	3018
869.22265625	0.2	SCRAMBLED	0	0.644981873831966	1	0	0	3024
870.712890625	0.2	FACES	1	0.628728693074663	1	0	0	3032
872.21240234375	0.2	SCRAMBLED	0	0.664514064758805	1	0	0	3039
873.54248046875	0.2	SCRAMBLED	0	0.81738633036457	1	0	0	3047
875.142578125	0.2	FACES	1	0.588213915946653	1	0	0	3053
876.412109375	0.2	FACES	1	0.577006782597891	1	0	0	3061
877.75244140625	0.2	FACES	1	0.481933900612603	1	0	0	3069
879.05224609375	0.2	SCRAMBLED	0	0.468563399328559	1	0	0	3077
880.40185546875	0.2	SCRAMBLED	0	0.4244946255385	1	0	0	3085
881.5517578125	0.2	SCRAMBLED	0	0.533411915275792	1	0	0	3093
882.8017578125	0.2	FACES	1	0.64227547549126	1	0	0	3101
884.271484375	0.2	SCRAMBLED	0	0.482994605918066	1	0	0	3109
885.7216796875	0.2	FACES	1	0.413885761375241	1	0	0	3117
886.8916015625	0.2	SCRAMBLED	0	0.597724343398113	1	0	0	3125
888.3212890625	0.2	FACES	1	0.498355212518618	1	0	0	3133
889.771484375	0.2	SCRAMBLED	0	0.489901566306798	1	0	0	3141
891.02099609375	0.2	FACES	1	0.422236778160368	1	0	0	3149
892.27099609375	0.2	FACES	1	0.439001898644165	1	0	0	3157
893.541015625	0.2	FACES	1	0.339195989000473	1	0	0	3165
894.8408203125	0.2	SCRAMBLED	0	0.457673209795757	1	0	0	3173
896.2607421875	0.2	FACES	1	0.633510922487403	1	0	0	3181
897.7607421875	0.2	FACES	1	0.393388853840406	1	0	0	3188
898.8603515625	0.2	SCRAMBLED	0	0.508300003923978	1	0	0	3196
NaN	0.2	SCRAMBLED	0	0.497011068885513	1	1	0	NaN
977.5546875	0.2	SCRAMBLED	0	0.354115892771006	1	0	0	3204
978.87451171875	0.2	FACES	1	0.443922375931834	1	0	0	3212
980.1943359375	0.2	SCRAMBLED	0	0.453874109915887	1	0	0	3220
981.314453125	0.2	FACES	1	0.532628913124427	1	0	0	3228
982.5439453125	0.2	FACES	1	0.522537120157722	1	0	0	3236
983.8642578125	0.2	FACES	1	0.43818357989494	1	0	0	3244
985.14404296875	0.2	SCRAMBLED	0	0.50813247647875	1	0	0	3252
986.44384765625	0.2	FACES	1	0.518680366689296	1	0	0	3260
987.8037109375	0.2	SCRAMBLED	0	0.444917881366564	1	0	0	3268
989.11376953125	0.2	FACES	1	0.419650516618276	1	0	0	3276
990.40380859375	0.2	SCRAMBLED	0	0.389452411640377	1	0	0	3284
991.68359375	0.2	SCRAMBLED	0	0.454229992544242	1	0	0	3292
993.08349609375	0.2	SCRAMBLED	0	0.468125111307018	1	0	0	3300
994.5234375	0.2	FACES	1	0.423967895100759	1	0	0	3308
995.72314453125	0.2	SCRAMBLED	0	0.472830368650648	1	0	0	3316
997.04296875	0.2	FACES	1	0.448614049968455	1	0	0	3324
998.27294921875	0.2	SCRAMBLED	0	0.384425079009816	1	0	0	3332
999.462890625	0.2	FACES	1	0.493272037405404	1	0	0	3340
1000.86279296875	0.2	FACES	1	0.443145410804391	1	0	0	3348
1002.212890625	0.2	FACES	1	0.653975230085962	1	0	0	3356
1003.53271484375	0.2	FACES	1	0.571811922520283	1	0	0	3364
1004.9326171875	0.2	FACES	1	0.358633096781887	1	0	0	3372
1006.09228515625	0.2	FACES	1	0.423439353555295	1	0	0	3380
1007.3623046875	0.2	SCRAMBLED	0	0.419124691734396	1	0	0	3388
1008.7021484375	0.2	FACES	1	0.463285530156099	1	0	0	3396
1009.912109375	0.2	FACES	1	0.411954517052436	1	0	0	3404
1011.11181640625	0.2	FACES	1	0.508851788015818	1	0	0	3412
1012.5517578125	0.2	FACES	1	0.407593370138784	1	0	0	3420
1013.751953125	0.2	SCRAMBLED	0	0.463588588815583	1	0	0	3428
1015.07177734375	0.2	SCRAMBLED	0	0.668333992374755	1	0	0	3436
1016.4716796875	0.2	SCRAMBLED	0	0.513171581307688	1	0	0	3444
1017.6513671875	0.2	FACES	1	0.471677598712631	1	0	0	3452
1018.79150390625	0.2	SCRAMBLED	0	0.476912906858161	1	0	0	3460
1020.21142578125	0.2	SCRAMBLED	0	0.428627271053301	1	0	0	3468
1021.541015625	0.2	FACES	1	0.443473221265776	1	0	0	3476
1022.7109375	0.2	FACES	1	0.546380350690924	1	0	0	3484
1023.93115234375	0.2	SCRAMBLED	0	0.508150285702868	1	0	0	3492
1025.14111328125	0.2	FACES	1	0.921706123656804	1	0	0	3500
1026.86083984375	0.2	SCRAMBLED	0	0.509817108325478	1	0	0	3505
1028.25048828125	0.2	FACES	1	0.511645421369394	1	0	0	3513
1029.46044921875	0.2	SCRAMBLED	0	0.517143340104667	1	0	0	3521
1030.7802734375	0.2	FACES	1	0.463327487480456	1	0	0	3529
1031.93017578125	0.2	SCRAMBLED	0	0.49374534017079	1	0	0	3537
1033.22021484375	0.2	SCRAMBLED	0	0.492951773225286	1	0	0	3545
1034.3701171875	0.2	SCRAMBLED	0	0.5178454461211	1	0	0	3553
1035.5703125	0.2	FACES	1	0.536640214434556	1	0	0	3561
1036.990234375	0.2	FACES	1	0.428432878845342	1	0	0	3569
1038.2900390625	0.2	SCRAMBLED	0	0.498420110538063	1	0	0	3577
1039.58984375	0.2	FACES	1	0.562216976718446	1	0	0	3585
1040.9697265625	0.2	FACES	1	0.428954477812113	1	0	0	3593
1042.28955078125	0.2	SCRAMBLED	0	0.443594565469539	1	0	0	3601
1043.4296875	0.2	FACES	1	0.587700165112437	1	0	0	3609
1044.78955078125	0.2	SCRAMBLED	0	0.363455774263457	1	0	0	3617
1045.939453125	0.2	SCRAMBLED	0	0.624362112837844	1	0	0	3625
1047.30908203125	0.2	SCRAMBLED	0	0.462160530533765	1	0	0	3633
1048.67919921875	0.2	FACES	1	0.583907404109596	1	0	0	3641
1050.14892578125	0.2	FACES	1	0.448697059063306	1	0	0	3649
1051.26904296875	0.2	FACES	1	0.60802894149856	1	0	0	3657
1052.72900390625	0.2	SCRAMBLED	0	0.428443141789103	1	0	0	3665
1054.12890625	0.2	SCRAMBLED	0	0.42838428079358	1	0	0	3673
1055.33837890625	0.2	FACES	1	0.538107815231342	1	0	0	3681
1056.78857421875	0.2	SCRAMBLED	0	0.669861359719107	1	0	0	3689
1058.2685546875	0.2	FACES	1	0.512691637813987	1	0	0	3697
1059.50830078125	0.2	FACES	1	0.44762427970727	1	0	0	3705
1060.88818359375	0.2	SCRAMBLED	0	NaN	0	0	1	3713
1062.7080078125	0.2	SCRAMBLED	0	NaN	1	0	1	3715
1063.837890625	0.2	SCRAMBLED	0	0.374128027190636	1	0	0	3721
1064.90771484375	0.2	FACES	1	0.452886150762424	1	0	0	3729
1066.27783203125	0.2	SCRAMBLED	0	0.47841461684493	1	0	0	3737
1067.65771484375	0.2	SCRAMBLED	0	0.448598655554633	1	0	0	3745
1068.94775390625	0.2	FACES	1	0.4774055281041	1	0	0	3753
1070.07763671875	0.2	FACES	1	0.591854543918089	1	0	0	3761
1071.42724609375	0.2	FACES	1	0.472151203330213	1	0	0	3769
1072.67724609375	0.2	FACES	1	0.428911614934805	1	0	0	3777
1074.04736328125	0.2	FACES	1	0.398823081961382	1	0	0	3785
1075.2373046875	0.2	SCRAMBLED	0	1.13444545396942	1	0	0	3793
1077.14697265625	0.2	SCRAMBLED	0	0.504335791408266	1	0	0	3797
1078.48681640625	0.2	SCRAMBLED	0	0.494280824294947	1	0	0	3805
1079.65673828125	0.2	SCRAMBLED	0	0.518085116015754	1	0	0	3813
1081.056640625	0.2	FACES	1	0.448865190211109	1	0	0	3821
1082.33642578125	0.2	SCRAMBLED	0	NaN	0	0	1	3829
1083.42626953125	0.2	SCRAMBLED	0	0.767313735137577	1	0	0	3837
1085.0263671875	0.2	FACES	1	0.548340572732741	1	0	0	3843
1086.4560546875	0.2	FACES	1	0.408170207884723	1	0	0	3851
1087.826171875	0.2	SCRAMBLED	0	0.38897095889115	1	0	0	3859
1088.94580078125	0.2	FACES	1	0.507854773324652	1	0	0	3867
1090.26611328125	0.2	FACES	1	0.503640326119239	1	0	0	3875
NaN	0.2	FACES	1	0.457527717490848	1	1	0	NaN
1092.9658203125	0.2	FACES	1	0.413336392092788	1	0	0	3883
1094.28564453125	0.2	SCRAMBLED	0	0.639119318781923	1	0	0	3891
1095.6357421875	0.2	SCRAMBLED	0	0.447000353166004	1	0	0	3899
1096.8154296875	0.2	FACES	1	0.456838591079759	1	0	0	3907
1098.13525390625	0.2	FACES	1	0.483506847495846	1	0	0	3915
1099.4150390625	0.2	SCRAMBLED	0	0.478442689011899	1	0	0	3923
1100.8349609375	0.2	SCRAMBLED	0	0.453315081394067	1	0	0	3931
1102.2548828125	0.2	SCRAMBLED	0	0.388119134652698	1	0	0	3939
1103.48486328125	0.2	SCRAMBLED	0	0.713896929871225	1	0	0	3947
1105.125	0.2	FACES	1	0.568857100597597	1	0	0	3953
1106.62451171875	0.2	FACES	1	0.388655524330716	1	0	0	3960
1107.9443359375	0.2	FACES	1	0.388227197401648	1	0	0	3968
1109.14453125	0.2	FACES	1	0.463284322750951	1	0	0	3976
1110.34423828125	0.2	FACES	1	0.397115811270851	1	0	0	3984
1111.494140625	0.2	FACES	1	0.423003178493673	1	0	0	3992
1112.7744140625	0.2	SCRAMBLED	0	0.518428320891871	1	0	0	4000
1114.06396484375	0.2	SCRAMBLED	0	0.457655400571639	1	0	0	4008
1115.19384765625	0.2	SCRAMBLED	0	0.522414568548811	1	0	0	4016
1116.53369140625	0.2	SCRAMBLED	0	0.418368252492655	1	0	0	4024
1117.6337890625	0.2	FACES	1	0.557122934959807	1	0	0	4032
1118.853515625	0.2	SCRAMBLED	0	0.527949916840043	1	0	0	4040
1120.0634765625	0.2	SCRAMBLED	0	0.512592932454936	1	0	0	4048
1121.46337890625	0.2	FACES	1	0.598642574911537	1	0	0	4056
1122.83349609375	0.2	FACES	1	0.408420744424802	1	0	0	4064
1124.13330078125	0.2	FACES	1	0.348310085756566	1	0	0	4072
1125.2431640625	0.2	SCRAMBLED	0	0.567150735460928	1	0	0	4080
1126.693359375	0.2	FACES	1	0.549945817700063	1	0	0	4088
1128.0029296875	0.2	FACES	1	NaN	0	0	1	4096
1129.4228515625	0.2	FACES	1	0.393591396031297	1	0	0	4104
1130.64306640625	0.2	FACES	1	0.407622649710902	1	0	0	4112
1131.7626953125	0.2	SCRAMBLED	0	0.507407731617604	1	0	0	4120
1133.0625	0.2	FACES	1	0.477119976817448	1	0	0	4128
1134.29248046875	0.2	FACES	1	0.532042114286924	1	0	0	4136
1135.63232421875	0.2	FACES	1	0.48383797832048	1	0	0	4144
1137.04248046875	0.2	SCRAMBLED	0	0.574648418752076	1	0	0	4152
1138.30224609375	0.2	FACES	1	0.467576949430622	1	0	0	4160
1139.58203125	0.2	SCRAMBLED	0	0.458200242083876	1	0	0	4168
1141.001953125	0.2	SCRAMBLED	0	0.43913018542753	1	0	0	4176
1142.35205078125	0.2	SCRAMBLED	0	0.488892175713772	1	0	0	4184
1143.70166015625	0.2	SCRAMBLED	0	0.368749037848829	1	0	0	4192
1144.8818359375	0.2	SCRAMBLED	0	0.379629568141354	1	0	0	4200
1146.1015625	0.2	SCRAMBLED	0	0.422563683068802	1	0	0	4208
1147.3916015625	0.2	SCRAMBLED	0	0.478378696545406	1	0	0	4216
1148.6416015625	0.2	SCRAMBLED	0	0.504122986274524	1	0	0	4224
1149.8115234375	0.2	SCRAMBLED	0	0.515853529696869	1	0	0	4232
1151.21142578125	0.2	SCRAMBLED	0	0.494843776883499	1	0	0	4240
1152.44091796875	0.2	FACES	1	0.537637832829205	1	0	0	4248
1153.64111328125	0.2	FACES	1	0.432433011659668	1	0	0	4256
1154.78076171875	0.2	SCRAMBLED	0	0.548379209693849	1	0	0	4264
1156.24072265625	0.2	SCRAMBLED	0	0.569106127882151	1	0	0	4272
1157.6005859375	0.2	FACES	1	0.54891741047868	1	0	0	4280
1158.880859375	0.2	FACES	1	0.50785809368881	1	0	0	4288
1160.310546875	0.2	SCRAMBLED	0	0.753677001047436	1	0	0	4296
1162.00048828125	0.2	SCRAMBLED	0	0.482535188310067	1	0	0	4302
1163.400390625	0.2	SCRAMBLED	0	0.538057707922235	1	0	0	4310
1164.900390625	0.2	SCRAMBLED	0	0.580103776460419	1	0	0	4317
1166.2900390625	0.2	FACES	1	0.473904053560545	1	0	0	4325
1167.490234375	0.2	FACES	1	0.566770704732335	1	0	0	4333
1168.8896484375	0.2	FACES	1	0.546600702105934	1	0	0	4341
1170.3095703125	0.2	SCRAMBLED	0	0.649362641078369	1	0	0	4349
NaN	0.2	SCRAMBLED	0	0.549143798919431	1	1	0	NaN
