onset	duration	trial_type	trial_type_id	response_time	repsonse_accuracy	bad_epoch	outliers	event_num
NaN	0.2	SCRAMBLED	0	NaN	0	1	1	NaN
NaN	0.2	FACES	1	0.765799126342245	1	1	0	NaN
NaN	0.2	FACES	1	0.550545311635688	1	1	0	NaN
NaN	0.2	SCRAMBLED	0	0.895328297768174	1	1	0	NaN
NaN	0.2	FACES	1	0.464902166274896	1	1	0	NaN
NaN	0.2	FACES	1	0.671035458235565	1	1	0	NaN
203.0732421875	0.2	SCRAMBLED	0	0.60656305765724	1	0	0	5
204.62353515625	0.2	SCRAMBLED	0	0.71063559925733	1	0	0	11
206.2431640625	0.2	FACES	1	0.46234645188224	1	0	0	17
207.52294921875	0.2	SCRAMBLED	0	0.516307130041696	1	0	0	25
208.7431640625	0.2	FACES	1	0.420200255481177	1	0	0	33
210.0927734375	0.2	FACES	1	0.487014966640345	1	0	0	41
211.29296875	0.2	SCRAMBLED	0	0.525866232333101	1	0	0	49
212.6728515625	0.2	FACES	1	0.433590665530119	1	0	0	57
213.892578125	0.2	FACES	1	0.4265193626984	1	0	0	65
215.142578125	0.2	FACES	1	0.478492095305683	1	0	0	73
216.38232421875	0.2	FACES	1	0.42524527855403	1	0	0	81
217.5625	0.2	FACES	1	0.410017543181766	1	0	0	89
218.93212890625	0.2	FACES	1	0.57194485428181	1	0	0	97
220.33203125	0.2	FACES	1	0.685708705909747	1	0	0	105
221.73193359375	0.2	FACES	1	0.681453910813161	1	0	0	113
223.27197265625	0.2	FACES	1	0.490287259037814	1	0	0	119
224.45166015625	0.2	SCRAMBLED	0	0.513221981014794	1	0	0	127
225.671875	0.2	SCRAMBLED	0	0.555016528985561	1	0	0	135
226.99169921875	0.2	SCRAMBLED	0	0.445827125405685	1	0	0	143
228.25146484375	0.2	FACES	1	0.493722547274956	1	0	0	151
229.55126953125	0.2	SCRAMBLED	0	0.499493505521059	1	0	0	159
230.89111328125	0.2	SCRAMBLED	0	0.553283038048903	1	0	0	167
232.22119140625	0.2	FACES	1	0.415985001968238	1	0	0	175
233.3212890625	0.2	SCRAMBLED	0	0.87996473252997	1	0	0	183
235.03125	0.2	SCRAMBLED	0	0.606769217209603	1	0	0	188
236.49072265625	0.2	SCRAMBLED	0	0.81754125002135	1	0	0	196
238.2109375	0.2	SCRAMBLED	0	0.409432569224919	1	0	0	201
239.6005859375	0.2	FACES	1	0.530245689061758	1	0	0	209
240.8505859375	0.2	FACES	1	0.355089152687015	1	0	0	217
242.00048828125	0.2	FACES	1	0.357010088838706	1	0	0	225
243.23046875	0.2	FACES	1	0.346748897061389	1	0	0	233
244.50048828125	0.2	SCRAMBLED	0	0.646695048065794	1	0	0	241
245.97021484375	0.2	FACES	1	0.526553531455647	1	0	0	249
247.419921875	0.2	SCRAMBLED	0	NaN	0	0	1	257
248.6201171875	0.2	SCRAMBLED	0	0.630986474967358	1	0	0	265
249.90966796875	0.2	SCRAMBLED	0	0.317958096788061	1	0	0	273
251.1396484375	0.2	FACES	1	0.521806428555919	1	0	0	281
252.33984375	0.2	SCRAMBLED	0	0.530699662658662	1	0	0	289
253.58984375	0.2	SCRAMBLED	0	0.43745668536485	1	0	0	297
254.689453125	0.2	FACES	1	0.530252329632731	1	0	0	305
255.90966796875	0.2	SCRAMBLED	0	0.540178172563174	1	0	0	313
257.2294921875	0.2	FACES	1	0.428730974763312	1	0	0	321
258.55908203125	0.2	FACES	1	0.47372476884766	1	0	0	329
259.72900390625	0.2	FACES	1	0.496547204802482	1	0	0	337
261.09912109375	0.2	FACES	1	0.356489105840865	1	0	0	345
262.26904296875	0.2	SCRAMBLED	0	0.548381390946361	1	0	0	353
263.62890625	0.2	SCRAMBLED	0	0.58602467636274	1	0	0	361
265.11865234375	0.2	FACES	1	0.46395890331587	1	0	0	369
266.44873046875	0.2	FACES	1	0.492741251953248	1	0	0	377
267.7685546875	0.2	FACES	1	0.385699469478823	1	0	0	385
268.96826171875	0.2	FACES	1	0.431458438476056	1	0	0	393
270.25830078125	0.2	FACES	1	0.321261479133227	1	0	0	401
271.318359375	0.2	SCRAMBLED	0	0.500152129450271	1	0	0	409
272.71826171875	0.2	SCRAMBLED	0	0.517876417761727	1	0	0	417
273.9580078125	0.2	SCRAMBLED	0	0.515889981430519	1	0	0	425
275.2080078125	0.2	FACES	1	0.476556670635091	1	0	0	433
276.52783203125	0.2	SCRAMBLED	0	0.404482023369837	1	0	0	441
277.8076171875	0.2	SCRAMBLED	0	NaN	0	0	1	449
278.77783203125	0.2	FACES	1	0.533182330767886	1	0	0	459
280.177734375	0.2	FACES	1	0.33200290494824	1	0	0	467
281.16748046875	0.2	SCRAMBLED	0	0.517959424902529	1	0	0	477
282.54736328125	0.2	FACES	1	0.492768417926072	1	0	0	485
283.697265625	0.2	FACES	1	0.52256284998839	1	0	0	493
285.1474609375	0.2	SCRAMBLED	0	0.573515047534329	1	0	0	501
286.4169921875	0.2	SCRAMBLED	0	0.420225610389025	1	0	0	509
287.51708984375	0.2	FACES	1	0.33701532885334	1	0	0	517
288.56689453125	0.2	SCRAMBLED	0	0.626960779578894	1	0	0	525
290.13671875	0.2	SCRAMBLED	0	0.504667416044867	1	0	0	531
291.36669921875	0.2	SCRAMBLED	0	0.502543036938278	1	0	0	539
292.81640625	0.2	SCRAMBLED	0	0.470745265272853	1	0	0	547
294.056640625	0.2	SCRAMBLED	0	0.44522404079953	1	0	0	555
295.38623046875	0.2	SCRAMBLED	0	0.443223115948967	1	0	0	563
296.736328125	0.2	SCRAMBLED	0	0.31669246427964	1	0	0	571
297.74609375	0.2	FACES	1	0.527745815836624	1	0	0	579
299.1962890625	0.2	SCRAMBLED	0	NaN	0	0	1	587
300.39599609375	0.2	FACES	1	NaN	0	0	1	595
302.2158203125	0.2	FACES	1	0.435194967171356	1	0	0	597
303.42578125	0.2	FACES	1	0.389020358784364	1	0	0	605
304.4755859375	0.2	FACES	1	0.321957229891723	1	0	0	613
305.58544921875	0.2	FACES	1	0.376885318542008	1	0	0	621
306.8955078125	0.2	SCRAMBLED	0	0.481667495731926	1	0	0	629
308.1455078125	0.2	SCRAMBLED	0	0.34847031423169	1	0	0	637
309.2353515625	0.2	SCRAMBLED	0	0.432511874548709	1	0	0	645
310.51513671875	0.2	FACES	1	0.652153597619872	1	0	0	653
312.03515625	0.2	SCRAMBLED	0	0.499972834026721	1	0	0	659
313.5048828125	0.2	SCRAMBLED	0	0.488220230319257	1	0	0	667
314.68505859375	0.2	FACES	1	0.501635089744013	1	0	0	675
316.02490234375	0.2	FACES	1	0.42844271360309	1	0	0	683
317.3046875	0.2	FACES	1	0.353234320403772	1	0	0	691
318.474609375	0.2	SCRAMBLED	0	0.506161242728467	1	0	0	699
319.90478515625	0.2	FACES	1	0.498982785224598	1	0	0	707
321.12451171875	0.2	FACES	1	0.452057490443622	1	0	0	715
322.41455078125	0.2	SCRAMBLED	0	0.532645953718657	1	0	0	723
323.89453125	0.2	FACES	1	0.413468225470297	1	0	0	731
325.2841796875	0.2	SCRAMBLED	0	0.596196522272294	1	0	0	739
326.63427734375	0.2	SCRAMBLED	0	0.528036491749845	1	0	0	747
328.11376953125	0.2	FACES	1	0.543674433317392	1	0	0	755
329.35400390625	0.2	FACES	1	0.507714532709088	1	0	0	763
330.73388671875	0.2	FACES	1	0.396519374772197	1	0	0	771
331.95361328125	0.2	SCRAMBLED	0	0.528476882360792	1	0	0	779
333.15380859375	0.2	SCRAMBLED	0	0.433231470994997	1	0	0	787
334.4833984375	0.2	SCRAMBLED	0	NaN	0	0	1	795
335.7333984375	0.2	FACES	1	NaN	0	0	1	803
337.693359375	0.2	SCRAMBLED	0	0.695409674950042	1	0	0	805
339.30322265625	0.2	FACES	1	0.779450329734573	1	0	0	811
340.9931640625	0.2	SCRAMBLED	0	1.1331902390848	1	0	0	817
342.82275390625	0.2	FACES	1	NaN	0	0	1	821
344.74267578125	0.2	FACES	1	1.01144351530093	1	0	0	823
346.5126953125	0.2	SCRAMBLED	0	0.895181601512832	1	0	0	827
348.16259765625	0.2	SCRAMBLED	0	0.662340837581269	1	0	0	833
349.50244140625	0.2	FACES	1	0.9001632373147	1	0	0	841
NaN	0.2	FACES	1	0.639960603301915	1	1	0	NaN
352.501953125	0.2	FACES	1	0.581963967053071	1	0	0	848
354.0322265625	0.2	FACES	1	0.612671175815649	1	0	0	854
355.421875	0.2	SCRAMBLED	0	0.625408998819239	1	0	0	862
356.77197265625	0.2	SCRAMBLED	0	1.07217395398948	1	0	0	870
358.54150390625	0.2	FACES	1	0.706966079962513	1	0	0	874
360.0615234375	0.2	SCRAMBLED	0	0.628746489552213	1	0	0	880
361.44140625	0.2	SCRAMBLED	0	0.684618746694923	1	0	0	888
362.87158203125	0.2	SCRAMBLED	0	0.752420186370728	1	0	0	896
364.46142578125	0.2	SCRAMBLED	0	0.584420374721503	1	0	0	902
365.73095703125	0.2	FACES	1	0.715015357829998	1	0	0	910
367.18115234375	0.2	SCRAMBLED	0	0.702891183977954	1	0	0	918
368.55078125	0.2	FACES	1	0.831555571922308	1	0	0	926
370.23095703125	0.2	SCRAMBLED	0	0.696484240113477	1	0	0	932
371.66064453125	0.2	SCRAMBLED	0	NaN	0	0	1	940
373.720703125	0.2	SCRAMBLED	0	0.618733413663904	1	0	0	942
375.0302734375	0.2	SCRAMBLED	0	0.872630221601867	1	0	0	950
376.67041015625	0.2	SCRAMBLED	0	0.70766092518852	1	0	0	956
378.240234375	0.2	SCRAMBLED	0	0.669416064386951	1	0	0	962
379.7900390625	0.2	FACES	1	0.637200540421873	1	0	0	968
381.3701171875	0.2	FACES	1	NaN	0	0	1	974
383.33984375	0.2	FACES	1	NaN	0	0	1	976
385.40966796875	0.2	FACES	1	1.07647432755175	1	0	0	978
387.37939453125	0.2	SCRAMBLED	0	0.701357212022685	1	0	0	982
388.8095703125	0.2	SCRAMBLED	0	0.423018574281741	1	0	0	990
389.8994140625	0.2	FACES	1	NaN	0	0	1	998
391.92919921875	0.2	FACES	1	0.618675157743837	1	0	0	1000
393.34912109375	0.2	FACES	1	1.0234514791573	1	0	0	1008
395.3291015625	0.2	SCRAMBLED	0	0.63821503859981	1	0	0	1012
396.93896484375	0.2	SCRAMBLED	0	0.467981882106869	1	0	0	1018
398.21875	0.2	SCRAMBLED	0	0.409932423132432	1	0	0	1026
399.48876953125	0.2	SCRAMBLED	0	0.597698498747832	1	0	0	1034
400.9384765625	0.2	FACES	1	0.711491629258035	1	0	0	1042
434.26611328125	0.2	FACES	1	0.64105086436075	1	0	0	1046
435.81591796875	0.2	SCRAMBLED	0	0.508109043009426	1	0	0	1052
437.185546875	0.2	FACES	1	0.523913300701679	1	0	0	1060
438.61572265625	0.2	FACES	1	0.521692029624319	1	0	0	1068
439.9052734375	0.2	SCRAMBLED	0	0.537453425448348	1	0	0	1076
441.21533203125	0.2	FACES	1	0.548396181309272	1	0	0	1084
442.60546875	0.2	FACES	1	0.587954667838403	1	0	0	1092
443.9853515625	0.2	FACES	1	0.762970544840755	1	0	0	1100
445.47509765625	0.2	FACES	1	0.87974197154972	1	0	0	1108
447.2548828125	0.2	SCRAMBLED	0	0.638603210173187	1	0	0	1113
448.705078125	0.2	FACES	1	0.692428360310259	1	0	0	1121
450.3046875	0.2	SCRAMBLED	0	0.688033811373771	1	0	0	1127
451.7744140625	0.2	SCRAMBLED	0	0.814983422719251	1	0	0	1135
453.4443359375	0.2	FACES	1	0.581841418329532	1	0	0	1141
454.91455078125	0.2	SCRAMBLED	0	0.573642425764774	1	0	0	1149
NaN	0.2	FACES	1	0.530446717263658	1	1	0	NaN
457.6943359375	0.2	FACES	1	0.63132544594464	1	0	0	1157
459.154296875	0.2	FACES	1	0.516150171084973	1	0	0	1165
460.35400390625	0.2	FACES	1	0.706741809760842	1	0	0	1173
461.86376953125	0.2	SCRAMBLED	0	0.617686014473747	1	0	0	1179
463.40380859375	0.2	FACES	1	0.73399682701438	1	0	0	1185
464.9736328125	0.2	FACES	1	0.657395724921116	1	0	0	1191
466.50341796875	0.2	SCRAMBLED	0	0.654032275590907	1	0	0	1197
467.8232421875	0.2	FACES	1	0.701913812629755	1	0	0	1205
469.4033203125	0.2	SCRAMBLED	0	NaN	0	0	1	1211
471.462890625	0.2	FACES	1	0.6641820868781	1	0	0	1213
472.86279296875	0.2	SCRAMBLED	0	0.661372823401507	1	0	0	1221
474.1728515625	0.2	FACES	1	0.822020315318241	1	0	0	1229
475.86279296875	0.2	FACES	1	0.81382313381846	1	0	0	1235
477.41259765625	0.2	FACES	1	0.83663500522789	1	0	0	1241
479.20263671875	0.2	SCRAMBLED	0	0.679315948720159	1	0	0	1246
480.63232421875	0.2	FACES	1	0.752331142346975	1	0	0	1254
482.18212890625	0.2	SCRAMBLED	0	0.683037988897013	1	0	0	1260
483.80224609375	0.2	SCRAMBLED	0	0.573937025651958	1	0	0	1266
485.27197265625	0.2	FACES	1	0.70382991927454	1	0	0	1274
486.89208984375	0.2	FACES	1	0.923527785357692	1	0	0	1280
488.591796875	0.2	FACES	1	0.807334692034146	1	0	0	1285
490.29150390625	0.2	SCRAMBLED	0	0.944142533221111	1	0	0	1291
492.111328125	0.2	SCRAMBLED	0	0.854891746615067	1	0	0	1296
493.8115234375	0.2	SCRAMBLED	0	0.8116598168167	1	0	0	1302
495.43115234375	0.2	FACES	1	0.673399803439224	1	0	0	1308
497.06103515625	0.2	SCRAMBLED	0	0.658223381572498	1	0	0	1314
498.630859375	0.2	SCRAMBLED	0	0.867975181166912	1	0	0	1320
500.28076171875	0.2	FACES	1	0.657895578828175	1	0	0	1326
501.65087890625	0.2	FACES	1	1.06959379022055	1	0	0	1334
503.45068359375	0.2	FACES	1	NaN	0	0	1	1338
505.48046875	0.2	SCRAMBLED	0	1.13187450044779	1	0	0	1340
507.59033203125	0.2	SCRAMBLED	0	0.678856240084315	1	0	0	1344
508.97021484375	0.2	SCRAMBLED	0	0.613670883630675	1	0	0	1352
510.490234375	0.2	FACES	1	0.682565300962779	1	0	0	1358
511.990234375	0.2	FACES	1	1.00294539518654	1	0	0	1365
513.83984375	0.2	FACES	1	0.852111762021195	1	0	0	1369
515.40966796875	0.2	FACES	1	1.09146149313847	1	0	0	1375
517.35986328125	0.2	FACES	1	0.880655351938003	1	0	0	1379
519.029296875	0.2	SCRAMBLED	0	0.764377742254055	1	0	0	1385
520.44921875	0.2	FACES	1	0.93192931534486	1	0	0	1393
522.17919921875	0.2	SCRAMBLED	0	0.699979293491651	1	0	0	1398
523.59912109375	0.2	FACES	1	0.752729576621277	1	0	0	1406
525.01904296875	0.2	SCRAMBLED	0	0.677613547731198	1	0	0	1414
526.548828125	0.2	SCRAMBLED	0	0.627516474653476	1	0	0	1420
527.888671875	0.2	SCRAMBLED	0	0.918199330630614	1	0	0	1428
529.71875	0.2	FACES	1	0.772085332547704	1	0	0	1433
531.15869140625	0.2	SCRAMBLED	0	NaN	0	0	1	1441
533.25830078125	0.2	FACES	1	0.572592008133142	1	0	0	1443
534.75830078125	0.2	FACES	1	0.678219952622385	1	0	0	1450
536.17822265625	0.2	SCRAMBLED	0	0.672172505137496	1	0	0	1458
537.60791015625	0.2	SCRAMBLED	0	0.737972718118726	1	0	0	1466
539.10791015625	0.2	FACES	1	0.672844410208654	1	0	0	1473
540.52783203125	0.2	FACES	1	0.751648974574891	1	0	0	1481
542.0478515625	0.2	FACES	1	NaN	0	0	1	1487
543.86767578125	0.2	SCRAMBLED	0	NaN	0	0	1	1489
545.8173828125	0.2	FACES	1	0.86064549974526	1	0	0	1491
547.58740234375	0.2	SCRAMBLED	0	0.649785932131181	1	0	0	1496
549.16748046875	0.2	FACES	1	0.458578229551676	1	0	0	1502
550.3173828125	0.2	SCRAMBLED	0	0.712388710062896	1	0	0	1510
551.68701171875	0.2	SCRAMBLED	0	0.63707406772437	1	0	0	1518
552.98681640625	0.2	FACES	1	0.801644024330926	1	0	0	1526
554.73681640625	0.2	SCRAMBLED	0	0.618831211168072	1	0	0	1531
556.126953125	0.2	FACES	1	0.712608754446137	1	0	0	1539
557.5263671875	0.2	FACES	1	0.646391392853729	1	0	0	1547
559.056640625	0.2	SCRAMBLED	0	0.57436564434056	1	0	0	1553
560.40625	0.2	SCRAMBLED	0	0.963681508544596	1	0	0	1561
562.326171875	0.2	FACES	1	0.663876620601059	1	0	0	1566
563.71630859375	0.2	SCRAMBLED	0	0.70776777801666	1	0	0	1574
565.2158203125	0.2	FACES	1	0.993256198067684	1	0	0	1582
567.03564453125	0.2	SCRAMBLED	0	0.668205971201587	1	0	0	1586
568.48583984375	0.2	FACES	1	0.698101521053104	1	0	0	1594
570.0556640625	0.2	FACES	1	0.528878636920126	1	0	0	1600
571.46533203125	0.2	SCRAMBLED	0	0.594689716290759	1	0	0	1608
572.91552734375	0.2	SCRAMBLED	0	0.688540909541189	1	0	0	1616
574.55517578125	0.2	FACES	1	0.587302080792597	1	0	0	1622
575.78515625	0.2	SCRAMBLED	0	0.607129015432747	1	0	0	1630
577.294921875	0.2	FACES	1	0.589913032664299	1	0	0	1636
578.84521484375	0.2	SCRAMBLED	0	0.468803501874845	1	0	0	1642
580.205078125	0.2	SCRAMBLED	0	0.669210508523065	1	0	0	1650
581.57470703125	0.2	SCRAMBLED	0	0.643408568992982	1	0	0	1658
583.0947265625	0.2	FACES	1	0.558297876707456	1	0	0	1664
584.4443359375	0.2	SCRAMBLED	0	0.60383106628251	1	0	0	1672
585.814453125	0.2	SCRAMBLED	0	0.545907778161109	1	0	0	1680
587.314453125	0.2	FACES	1	0.513674143547632	1	0	0	1687
588.58447265625	0.2	FACES	1	0.701251868415511	1	0	0	1695
590.2041015625	0.2	SCRAMBLED	0	0.867192801138117	1	0	0	1701
591.9541015625	0.2	SCRAMBLED	0	0.603063778460637	1	0	0	1706
593.333984375	0.2	FACES	1	0.738879156092025	1	0	0	1714
594.8837890625	0.2	FACES	1	0.512788532819741	1	0	0	1720
596.2236328125	0.2	FACES	1	0.388583892147835	1	0	0	1728
597.5537109375	0.2	SCRAMBLED	0	0.514320693710033	1	0	0	1736
598.9736328125	0.2	FACES	1	0.493050944047809	1	0	0	1744
600.37353515625	0.2	SCRAMBLED	0	0.477021812465409	1	0	0	1752
601.54345703125	0.2	SCRAMBLED	0	0.452853151615273	1	0	0	1760
602.72314453125	0.2	FACES	1	0.477782459715854	1	0	0	1768
604.11328125	0.2	SCRAMBLED	0	0.639566998534065	1	0	0	1776
605.51318359375	0.2	FACES	1	0.532868714699362	1	0	0	1784
606.78271484375	0.2	FACES	1	0.436091746132206	1	0	0	1792
608.04296875	0.2	SCRAMBLED	0	0.514930720731172	1	0	0	1800
609.3125	0.2	FACES	1	0.4218380618222	1	0	0	1808
610.58251953125	0.2	SCRAMBLED	0	0.531492003544827	1	0	0	1816
612.05224609375	0.2	SCRAMBLED	0	0.692428963998736	1	0	0	1824
613.55224609375	0.2	SCRAMBLED	0	0.549326766814374	1	0	0	1831
614.7724609375	0.2	SCRAMBLED	0	0.597161819854591	1	0	0	1839
616.09228515625	0.2	FACES	1	0.456764448072136	1	0	0	1847
617.39208984375	0.2	SCRAMBLED	0	0.664417525312729	1	0	0	1855
618.841796875	0.2	SCRAMBLED	0	0.552748170220639	1	0	0	1863
620.32177734375	0.2	FACES	1	0.577404611212387	1	0	0	1871
621.591796875	0.2	FACES	1	0.58805065427714	1	0	0	1879
622.87158203125	0.2	FACES	1	0.40110167076773	1	0	0	1887
624.16162109375	0.2	FACES	1	0.408871139111397	1	0	0	1895
625.33154296875	0.2	SCRAMBLED	0	0.637806039780571	1	0	0	1903
626.7314453125	0.2	SCRAMBLED	0	0.927472586514341	1	0	0	1911
628.51123046875	0.2	SCRAMBLED	0	1.00936290359596	1	0	0	1916
630.2509765625	0.2	SCRAMBLED	0	0.578160127112824	1	0	0	1920
631.73095703125	0.2	SCRAMBLED	0	0.488930469597108	1	0	0	1928
633.03076171875	0.2	FACES	1	0.503180531777161	1	0	0	1936
634.3505859375	0.2	SCRAMBLED	0	0.597444044132317	1	0	0	1944
635.90087890625	0.2	SCRAMBLED	0	0.429403483522947	1	0	0	1950
637.140625	0.2	SCRAMBLED	0	0.459590916664638	1	0	0	1958
638.30029296875	0.2	FACES	1	0.53210474716343	1	0	0	1966
639.55029296875	0.2	SCRAMBLED	0	0.62774044301068	1	0	0	1974
640.8701171875	0.2	SCRAMBLED	0	0.532802308987357	1	0	0	1982
NaN	0.2	FACES	1	0.50361096153074	1	1	0	NaN
643.39013671875	0.2	SCRAMBLED	0	0.542052322872223	1	0	0	1990
644.759765625	0.2	SCRAMBLED	0	0.428366045189705	1	0	0	1998
645.9599609375	0.2	FACES	1	0.548132369524865	1	0	0	2006
647.3896484375	0.2	FACES	1	0.428882802369117	1	0	0	2014
648.77978515625	0.2	FACES	1	0.353863061761786	1	0	0	2022
649.95947265625	0.2	FACES	1	0.398529354947186	1	0	0	2030
651.29931640625	0.2	SCRAMBLED	0	0.57452049038784	1	0	0	2038
652.69921875	0.2	SCRAMBLED	0	0.493299663624839	1	0	0	2046
653.96923828125	0.2	SCRAMBLED	0	0.476231584488232	1	0	0	2054
655.26904296875	0.2	SCRAMBLED	0	0.455024920252981	1	0	0	2062
674.2978515625	0.2	FACES	1	0.54234360247392	1	0	0	2066
675.56787109375	0.2	SCRAMBLED	0	0.59832995670331	1	0	0	2074
676.83740234375	0.2	FACES	1	0.497248086911895	1	0	0	2082
678.017578125	0.2	FACES	1	0.346849411162566	1	0	0	2090
679.21728515625	0.2	SCRAMBLED	0	0.579854981997869	1	0	0	2098
680.6171875	0.2	SCRAMBLED	0	0.607786130140539	1	0	0	2106
681.93701171875	0.2	FACES	1	0.4923874906126	1	0	0	2114
683.0869140625	0.2	FACES	1	0.402117980010644	1	0	0	2122
684.1767578125	0.2	SCRAMBLED	0	0.513304082623108	1	0	0	2130
685.63671875	0.2	FACES	1	0.442930628970771	1	0	0	2138
686.88671875	0.2	SCRAMBLED	0	0.539858217767232	1	0	0	2146
688.146484375	0.2	SCRAMBLED	0	0.457937716271317	1	0	0	2154
689.3564453125	0.2	FACES	1	0.561581035494328	1	0	0	2162
690.7763671875	0.2	FACES	1	0.472495357636944	1	0	0	2170
692.146484375	0.2	FACES	1	0.468308779317795	1	0	0	2178
693.42626953125	0.2	FACES	1	0.438295812093656	1	0	0	2186
694.72607421875	0.2	SCRAMBLED	0	0.53886696158861	1	0	0	2194
696.0361328125	0.2	SCRAMBLED	0	0.747727717261114	1	0	0	2202
697.5458984375	0.2	SCRAMBLED	0	0.397467769082141	1	0	0	2208
NaN	0.2	SCRAMBLED	0	0.392488849877282	1	1	0	NaN
NaN	0.2	SCRAMBLED	0	0.347287990708082	1	1	0	NaN
700.81591796875	0.2	FACES	1	0.447239454169448	1	0	0	2216
702.10546875	0.2	SCRAMBLED	0	0.53383431412567	1	0	0	2224
703.60546875	0.2	SCRAMBLED	0	0.528800459286231	1	0	0	2231
704.95556640625	0.2	FACES	1	0.579703456236075	1	0	0	2239
706.33544921875	0.2	FACES	1	0.403361276052237	1	0	0	2247
707.455078125	0.2	SCRAMBLED	0	0.597316967745883	1	0	0	2255
708.705078125	0.2	FACES	1	0.541220138558401	1	0	0	2263
709.9052734375	0.2	FACES	1	0.502020846564392	1	0	0	2271
711.1748046875	0.2	SCRAMBLED	0	0.487794931916142	1	0	0	2279
712.57470703125	0.2	SCRAMBLED	0	0.478605286860329	1	0	0	2287
714.0146484375	0.2	SCRAMBLED	0	0.419498467839276	1	0	0	2295
715.36474609375	0.2	SCRAMBLED	0	0.392277860818467	1	0	0	2303
716.6943359375	0.2	SCRAMBLED	0	0.323083108559786	1	0	0	2311
717.83447265625	0.2	FACES	1	0.544038155514954	1	0	0	2319
719.26416015625	0.2	SCRAMBLED	0	0.633780344392108	1	0	0	2327
720.60400390625	0.2	FACES	1	0.612570963558937	1	0	0	2335
722.154296875	0.2	SCRAMBLED	0	0.493453000451609	1	0	0	2341
723.3837890625	0.2	SCRAMBLED	0	0.47230308291546	1	0	0	2349
724.65380859375	0.2	FACES	1	0.453087684516959	1	0	0	2357
725.95361328125	0.2	SCRAMBLED	0	0.600978337249217	1	0	0	2365
727.20361328125	0.2	FACES	1	0.372824911076805	1	0	0	2373
728.4736328125	0.2	SCRAMBLED	0	0.483718526710618	1	0	0	2381
729.6435546875	0.2	FACES	1	0.367374813158222	1	0	0	2389
730.79345703125	0.2	SCRAMBLED	0	0.433454835664179	1	0	0	2397
732.04345703125	0.2	SCRAMBLED	0	0.557068465497196	1	0	0	2405
733.373046875	0.2	FACES	1	0.459031297615638	1	0	0	2413
734.71337890625	0.2	SCRAMBLED	0	0.532819212259255	1	0	0	2421
736.212890625	0.2	FACES	1	0.343631752555211	1	0	0	2428
737.3330078125	0.2	FACES	1	0.368547779513847	1	0	0	2436
738.56298828125	0.2	FACES	1	0.363321951796479	1	0	0	2444
739.8330078125	0.2	SCRAMBLED	0	0.45909830701612	1	0	0	2452
741.1025390625	0.2	FACES	1	0.624002405094416	1	0	0	2460
742.53271484375	0.2	FACES	1	0.562843347717262	1	0	0	2468
744.05224609375	0.2	SCRAMBLED	0	0.480305574940303	1	0	0	2474
745.2724609375	0.2	FACES	1	0.456488864365383	1	0	0	2482
746.572265625	0.2	FACES	1	0.353290463415306	1	0	0	2490
747.59228515625	0.2	SCRAMBLED	0	0.547097647789087	1	0	0	2498
748.90185546875	0.2	SCRAMBLED	0	0.467866577642781	1	0	0	2506
750.22216796875	0.2	FACES	1	0.44354790025136	1	0	0	2514
751.57177734375	0.2	SCRAMBLED	0	0.640184873503131	1	0	0	2522
753.01171875	0.2	FACES	1	0.567470014802439	1	0	0	2530
754.51171875	0.2	SCRAMBLED	0	NaN	0	0	1	2537
755.841796875	0.2	SCRAMBLED	0	0.52808720156645	1	0	0	2545
757.28125	0.2	FACES	1	0.58285018146853	1	0	0	2553
758.80126953125	0.2	FACES	1	0.508774609353168	1	0	0	2559
760.06103515625	0.2	FACES	1	0.492579161646063	1	0	0	2567
761.43115234375	0.2	FACES	1	0.55831930764225	1	0	0	2575
762.93115234375	0.2	SCRAMBLED	0	0.61321389159184	1	0	0	2582
764.2509765625	0.2	SCRAMBLED	0	0.477920704335247	1	0	0	2590
765.6708984375	0.2	FACES	1	0.518648535090051	1	0	0	2598
767.07080078125	0.2	FACES	1	0.508569657177304	1	0	0	2606
768.45068359375	0.2	FACES	1	0.538511389182986	1	0	0	2614
769.8203125	0.2	SCRAMBLED	0	0.563325996508411	1	0	0	2622
771.240234375	0.2	FACES	1	0.423455946450304	1	0	0	2630
772.46044921875	0.2	SCRAMBLED	0	0.582979370763496	1	0	0	2638
773.93994140625	0.2	SCRAMBLED	0	0.399787743195702	1	0	0	2645
775.26025390625	0.2	FACES	1	0.493569512292197	1	0	0	2653
776.56005859375	0.2	SCRAMBLED	0	0.569451923471661	1	0	0	2661
777.85986328125	0.2	FACES	1	0.447295899024539	1	0	0	2669
779.25	0.2	SCRAMBLED	0	0.553081708003447	1	0	0	2677
780.52978515625	0.2	SCRAMBLED	0	0.602964773580879	1	0	0	2685
781.87939453125	0.2	SCRAMBLED	0	0.592720786919926	1	0	0	2693
783.279296875	0.2	SCRAMBLED	0	0.450167946083184	1	0	0	2701
784.46923828125	0.2	FACES	1	0.486474363773141	1	0	0	2709
785.6494140625	0.2	FACES	1	0.422268793420244	1	0	0	2717
786.96923828125	0.2	FACES	1	0.448050509392033	1	0	0	2725
788.2890625	0.2	FACES	1	0.328997744620665	1	0	0	2733
789.548828125	0.2	SCRAMBLED	0	0.413771276993884	1	0	0	2741
790.90869140625	0.2	FACES	1	0.338452106992918	1	0	0	2749
792.0087890625	0.2	SCRAMBLED	0	0.52819858205703	1	0	0	2757
793.30859375	0.2	FACES	1	0.378047418508231	1	0	0	2765
794.3388671875	0.2	FACES	1	0.502048918069704	1	0	0	2773
795.6083984375	0.2	FACES	1	0.41201152561689	1	0	0	2781
796.75830078125	0.2	SCRAMBLED	0	0.522858657252073	1	0	0	2789
798.05810546875	0.2	SCRAMBLED	0	0.673597209511172	1	0	0	2797
799.54833984375	0.2	SCRAMBLED	0	0.428528739184912	1	0	0	2805
800.9482421875	0.2	SCRAMBLED	0	0.369316878400241	1	0	0	2813
802.1181640625	0.2	FACES	1	0.433216982476097	1	0	0	2821
803.3779296875	0.2	SCRAMBLED	0	NaN	0	0	1	2829
804.36767578125	0.2	SCRAMBLED	0	0.657960475320124	1	0	0	2839
805.74755859375	0.2	SCRAMBLED	0	0.562577121179856	1	0	0	2847
807.087890625	0.2	SCRAMBLED	0	0.397516064145293	1	0	0	2855
808.3974609375	0.2	FACES	1	0.508061049789376	1	0	0	2863
809.697265625	0.2	FACES	1	0.638207492496349	1	0	0	2871
811.1572265625	0.2	SCRAMBLED	0	0.599847025386225	1	0	0	2879
812.6572265625	0.2	SCRAMBLED	0	0.389777082060391	1	0	0	2886
813.95703125	0.2	SCRAMBLED	0	0.518587562572066	1	0	0	2894
815.35693359375	0.2	SCRAMBLED	0	0.3533553599068	1	0	0	2902
816.537109375	0.2	FACES	1	0.518323448943647	1	0	0	2910
817.876953125	0.2	SCRAMBLED	0	0.509085810669148	1	0	0	2918
819.20654296875	0.2	FACES	1	0.448991961286993	1	0	0	2926
820.4765625	0.2	SCRAMBLED	0	0.38988816070696	1	0	0	2934
821.6767578125	0.2	FACES	1	0.512707638588381	1	0	0	2942
823.1162109375	0.2	FACES	1	0.538508068897954	1	0	0	2950
824.51611328125	0.2	FACES	1	0.344300639184894	1	0	0	2958
825.666015625	0.2	SCRAMBLED	0	0.499190453997926	1	0	0	2966
826.99609375	0.2	FACES	1	1.04899805853847	1	0	0	2974
828.99609375	0.2	FACES	1	0.61273516677511	1	0	0	2978
830.4658203125	0.2	SCRAMBLED	0	0.639970866002841	1	0	0	2986
831.916015625	0.2	FACES	1	0.462311136117023	1	0	0	2994
833.33544921875	0.2	FACES	1	0.554195211061142	1	0	0	3002
834.67578125	0.2	FACES	1	0.417994680298762	1	0	0	3010
835.95556640625	0.2	FACES	1	0.363889720637417	1	0	0	3018
837.17529296875	0.2	SCRAMBLED	0	0.779431615397243	1	0	0	3026
838.79541015625	0.2	FACES	1	NaN	0	0	1	3032
839.955078125	0.2	SCRAMBLED	0	NaN	0	0	1	3040
841.84521484375	0.2	SCRAMBLED	0	0.622044945801008	1	0	0	3042
843.3447265625	0.2	SCRAMBLED	0	0.483944306132344	1	0	0	3049
844.5947265625	0.2	FACES	1	0.541732066231816	1	0	0	3057
845.89453125	0.2	FACES	1	0.409524631689692	1	0	0	3065
847.0146484375	0.2	SCRAMBLED	0	0.568450404591658	1	0	0	3073
848.314453125	0.2	FACES	1	1.00723882633338	1	0	0	3081
850.1044921875	0.2	FACES	1	0.518005305212682	1	0	0	3085
851.38427734375	0.2	SCRAMBLED	0	0.587974891396698	1	0	0	3093
852.80419921875	0.2	FACES	1	1.13731584488596	1	0	0	3101
854.7041015625	0.2	SCRAMBLED	0	0.626990360305172	1	0	0	3105
856.0341796875	0.2	FACES	1	0.612251914295484	1	0	0	3113
857.333984375	0.2	SCRAMBLED	0	0.623031976161656	1	0	0	3121
858.673828125	0.2	FACES	1	0.502950526537006	1	0	0	3129
860.0537109375	0.2	FACES	1	0.478738098285248	1	0	0	3137
861.4033203125	0.2	FACES	1	0.438527326554322	1	0	0	3145
862.8134765625	0.2	SCRAMBLED	0	0.559295169769484	1	0	0	3153
864.11328125	0.2	FACES	1	0.557259532841726	1	0	0	3161
865.4931640625	0.2	FACES	1	0.568988894549875	1	0	0	3169
866.73291015625	0.2	SCRAMBLED	0	0.607952144421688	1	0	0	3177
868.283203125	0.2	FACES	1	0.453711898213442	1	0	0	3183
869.68310546875	0.2	SCRAMBLED	0	0.653448509011014	1	0	0	3191
871.052734375	0.2	SCRAMBLED	0	0.618146326798069	1	0	0	3199
872.40283203125	0.2	SCRAMBLED	0	0.553077482185017	1	0	0	3207
905.22998046875	0.2	SCRAMBLED	0	0.597587721946184	1	0	0	3211
906.51025390625	0.2	SCRAMBLED	0	0.4828646096189	1	0	0	3219
NaN	0.2	FACES	1	0.457547431788953	1	1	0	NaN
NaN	0.2	SCRAMBLED	0	0.587429459023042	1	1	0	NaN
910.4599609375	0.2	SCRAMBLED	0	0.533288881752014	1	0	0	3227
911.9296875	0.2	SCRAMBLED	0	0.463038882355704	1	0	0	3235
913.0498046875	0.2	FACES	1	0.497084185539734	1	0	0	3243
914.24951171875	0.2	SCRAMBLED	0	0.52181246543887	1	0	0	3251
915.61962890625	0.2	SCRAMBLED	0	0.508700053849225	1	0	0	3259
916.84912109375	0.2	FACES	1	0.44748847559049	1	0	0	3267
917.94921875	0.2	FACES	1	NaN	0	0	1	3275
919.88916015625	0.2	FACES	1	NaN	0	0	1	3277
921.68896484375	0.2	FACES	1	NaN	1	0	1	3279
922.708984375	0.2	FACES	1	0.607717913363558	1	0	0	3285
923.96875	0.2	SCRAMBLED	0	0.573515349378795	1	0	0	3293
925.35888671875	0.2	FACES	1	0.613329497900395	1	0	0	3301
926.62841796875	0.2	SCRAMBLED	0	0.518228066193387	1	0	0	3309
927.978515625	0.2	FACES	1	0.508037204102038	1	0	0	3317
929.30859375	0.2	FACES	1	0.48941975895923	1	0	0	3325
930.54833984375	0.2	FACES	1	0.356725449808437	1	0	0	3333
931.8583984375	0.2	SCRAMBLED	0	0.538484525054173	1	0	0	3341
933.248046875	0.2	FACES	1	0.512418773740137	1	0	0	3349
934.5478515625	0.2	FACES	1	0.509202020665725	1	0	0	3357
935.927734375	0.2	FACES	1	0.519002598274255	1	0	0	3365
937.41796875	0.2	SCRAMBLED	0	0.468916391585935	1	0	0	3373
938.74755859375	0.2	SCRAMBLED	0	0.427711948922934	1	0	0	3381
939.83740234375	0.2	SCRAMBLED	0	0.4174996558977	1	0	0	3389
941.03759765625	0.2	FACES	1	0.638305893688084	1	0	0	3397
942.38720703125	0.2	FACES	1	0.451822655697015	1	0	0	3405
943.75732421875	0.2	SCRAMBLED	0	0.53858624653185	1	0	0	3413
945.17724609375	0.2	FACES	1	0.508596823150583	1	0	0	3421
946.5869140625	0.2	SCRAMBLED	0	0.638588419809821	1	0	0	3429
947.88671875	0.2	FACES	1	0.462466887696792	1	0	0	3437
949.27685546875	0.2	SCRAMBLED	0	0.534233955776017	1	0	0	3445
950.4765625	0.2	SCRAMBLED	0	0.495771767189126	1	0	0	3453
951.62646484375	0.2	FACES	1	0.532854226180461	1	0	0	3461
952.896484375	0.2	FACES	1	0.567780914273953	1	0	0	3469
954.42626953125	0.2	SCRAMBLED	0	0.558696009137748	1	0	0	3475
955.8662109375	0.2	SCRAMBLED	0	0.2834944376159	1	0	0	3483
956.986328125	0.2	FACES	1	0.548263068040342	1	0	0	3491
958.46630859375	0.2	SCRAMBLED	0	0.454172814225785	1	0	0	3499
959.68603515625	0.2	FACES	1	0.66197681354015	1	0	0	3507
961.10595703125	0.2	FACES	1	0.481908367361484	1	0	0	3515
962.265625	0.2	SCRAMBLED	0	0.492607534995841	1	0	0	3523
963.41552734375	0.2	FACES	1	0.572471270474125	1	0	0	3531
964.82568359375	0.2	FACES	1	0.487413099070181	1	0	0	3539
966.20556640625	0.2	SCRAMBLED	0	0.62415996773916	1	0	0	3547
967.58544921875	0.2	SCRAMBLED	0	0.427002011489549	1	0	0	3555
968.84521484375	0.2	FACES	1	0.548756281376882	1	0	0	3563
970.3251953125	0.2	SCRAMBLED	0	0.553529946561412	1	0	0	3571
971.7451171875	0.2	FACES	1	0.983588431883163	1	0	0	3579
973.6748046875	0.2	FACES	1	0.532192281965763	1	0	0	3584
974.89501953125	0.2	SCRAMBLED	0	0.542977475182397	1	0	0	3592
976.11474609375	0.2	SCRAMBLED	0	0.447898681786228	1	0	0	3600
977.33447265625	0.2	SCRAMBLED	0	0.374768787383346	1	0	0	3608
978.39453125	0.2	SCRAMBLED	0	0.352533740138824	1	0	0	3616
979.41455078125	0.2	SCRAMBLED	0	0.396467759423103	1	0	0	3624
980.5546875	0.2	FACES	1	0.43735677495215	1	0	0	3632
981.83447265625	0.2	FACES	1	0.593156348023967	1	0	0	3640
983.13427734375	0.2	FACES	1	0.47094961376024	1	0	0	3648
984.404296875	0.2	SCRAMBLED	0	0.603760434752076	1	0	0	3656
985.9541015625	0.2	FACES	1	0.393631631817698	1	0	0	3662
987.2841796875	0.2	FACES	1	0.408462743980635	1	0	0	3670
988.3740234375	0.2	SCRAMBLED	0	0.66338974599239	1	0	0	3678
989.77392578125	0.2	SCRAMBLED	0	0.57112202713688	1	0	0	3686
991.2236328125	0.2	FACES	1	0.470012085839699	1	0	0	3694
992.3935546875	0.2	FACES	1	0.476875418054078	1	0	0	3702
993.62353515625	0.2	SCRAMBLED	0	0.58765433291228	1	0	0	3710
994.9931640625	0.2	SCRAMBLED	0	0.533436181695379	1	0	0	3718
996.26318359375	0.2	SCRAMBLED	0	0.433243846605365	1	0	0	3726
NaN	0.2	SCRAMBLED	0	0.498139432677817	1	1	0	NaN
NaN	0.2	SCRAMBLED	0	0.44794546762887	1	1	0	NaN
999.98291015625	0.2	FACES	1	0.271781073647617	1	0	0	3734
1001.0126953125	0.2	SCRAMBLED	0	0.557642874908197	1	0	0	3742
1002.4326171875	0.2	SCRAMBLED	0	0.529441878098169	1	0	0	3750
1003.7529296875	0.2	FACES	1	0.698247915464435	1	0	0	3758
1005.2724609375	0.2	FACES	1	0.538148874362832	1	0	0	3764
1006.72265625	0.2	FACES	1	0.413798744811174	1	0	0	3772
1007.892578125	0.2	FACES	1	0.44174890913564	1	0	0	3780
1009.0224609375	0.2	FACES	1	0.507598624556977	1	0	0	3788
1010.4921875	0.2	SCRAMBLED	0	0.68818111131759	1	0	0	3796
1011.822265625	0.2	FACES	1	0.503248446710131	1	0	0	3804
1013.11181640625	0.2	FACES	1	0.51815351068899	1	0	0	3812
1014.31201171875	0.2	FACES	1	0.376712060001864	1	0	0	3820
1015.4619140625	0.2	SCRAMBLED	0	0.597692763709347	1	0	0	3828
1016.78173828125	0.2	FACES	1	0.50653945344493	1	0	0	3836
1018.1416015625	0.2	FACES	1	0.483609259129935	1	0	0	3844
1019.361328125	0.2	SCRAMBLED	0	0.482278428285099	1	0	0	3852
1020.5615234375	0.2	SCRAMBLED	0	0.688169641240165	1	0	0	3860
1021.96142578125	0.2	FACES	1	0.442971377930462	1	0	0	3868
1023.3310546875	0.2	SCRAMBLED	0	0.57474174214758	1	0	0	3876
1024.7509765625	0.2	FACES	1	0.44768527797396	1	0	0	3884
1026.12109375	0.2	SCRAMBLED	0	0.714456040625464	1	0	0	3892
1027.80078125	0.2	FACES	1	0.603548842005239	1	0	0	3898
1029.140625	0.2	SCRAMBLED	0	0.552132710005026	1	0	0	3906
1030.6005859375	0.2	SCRAMBLED	0	0.498945658394859	1	0	0	3914
1031.92041015625	0.2	FACES	1	0.589326851330497	1	0	0	3922
1033.3203125	0.2	SCRAMBLED	0	NaN	0	0	1	3930
NaN	0.2	SCRAMBLED	0	0.624500447936498	1	1	0	NaN
NaN	0.2	SCRAMBLED	0	0.611944938797933	1	1	0	NaN
1038.330078125	0.2	FACES	1	0.498924227460066	1	0	0	3936
1039.56005859375	0.2	SCRAMBLED	0	0.551120022892064	1	0	0	3944
1040.85009765625	0.2	SCRAMBLED	0	0.401637444128482	1	0	0	3952
1042.07958984375	0.2	SCRAMBLED	0	0.374420157393615	1	0	0	3960
1043.14990234375	0.2	SCRAMBLED	0	0.441242112812233	1	0	0	3968
1044.51953125	0.2	FACES	1	0.498007828629852	1	0	0	3976
1045.9296875	0.2	SCRAMBLED	0	0.578956391972042	1	0	0	3984
1047.349609375	0.2	SCRAMBLED	0	0.474649015626255	1	0	0	3992
1048.54931640625	0.2	FACES	1	0.606478843139939	1	0	0	4000
1049.9189453125	0.2	SCRAMBLED	0	0.607539221628485	1	0	0	4008
1051.4189453125	0.2	SCRAMBLED	0	0.403460582776461	1	0	0	4015
1052.46875	0.2	FACES	1	0.682113440274861	1	0	0	4023
1054.11865234375	0.2	SCRAMBLED	0	0.539898664882912	1	0	0	4029
1055.30859375	0.2	FACES	1	0.582719482953053	1	0	0	4037
1056.85888671875	0.2	SCRAMBLED	0	0.618453905983642	1	0	0	4043
1058.2783203125	0.2	FACES	1	0.693160634210926	1	0	0	4051
1059.6982421875	0.2	SCRAMBLED	0	0.578018864051955	1	0	0	4059
1060.95849609375	0.2	SCRAMBLED	0	0.512944284399964	1	0	0	4067
1062.37841796875	0.2	SCRAMBLED	0	0.398483474636578	1	0	0	4075
1063.67822265625	0.2	SCRAMBLED	0	0.408670110909497	1	0	0	4083
1064.998046875	0.2	FACES	1	0.581461094704082	1	0	0	4091
1066.44775390625	0.2	FACES	1	0.602981978696789	1	0	0	4099
1067.78759765625	0.2	SCRAMBLED	0	0.56314790846136	1	0	0	4107
1069.19775390625	0.2	SCRAMBLED	0	0.458923841099931	1	0	0	4115
1070.4677734375	0.2	FACES	1	0.58284897409203	1	0	0	4123
1071.9375	0.2	FACES	1	0.617479251233362	1	0	0	4131
1073.3173828125	0.2	FACES	1	0.422189408409849	1	0	0	4139
1074.45751953125	0.2	SCRAMBLED	0	0.488079269102855	1	0	0	4147
1075.87744140625	0.2	FACES	1	0.408018429396179	1	0	0	4155
1077.22705078125	0.2	FACES	1	0.593896469872107	1	0	0	4163
1078.69677734375	0.2	SCRAMBLED	0	0.528736166482759	1	0	0	4171
1079.9267578125	0.2	SCRAMBLED	0	0.43738997780838	1	0	0	4179
1081.02685546875	0.2	FACES	1	0.632441967444265	1	0	0	4187
1082.546875	0.2	FACES	1	0.51820723894707	1	0	0	4193
1083.966796875	0.2	FACES	1	0.503059794118144	1	0	0	4201
1085.29638671875	0.2	FACES	1	0.457777437029563	1	0	0	4209
1086.66650390625	0.2	FACES	1	0.382683744606311	1	0	0	4217
1087.896484375	0.2	FACES	1	0.303592730144373	1	0	0	4225
1088.8662109375	0.2	SCRAMBLED	0	0.537412676488202	1	0	0	4235
1090.2861328125	0.2	SCRAMBLED	0	0.464198265724463	1	0	0	4243
1091.416015625	0.2	FACES	1	0.472102658402036	1	0	0	4251
1092.7158203125	0.2	SCRAMBLED	0	0.39398237471687	1	0	0	4259
1093.81591796875	0.2	SCRAMBLED	0	0.446721791457094	1	0	0	4267
1094.935546875	0.2	FACES	1	0.48056516090719	1	0	0	4275
1096.17578125	0.2	FACES	1	0.542427515146755	1	0	0	4283
1097.58544921875	0.2	FACES	1	0.488246490760048	1	0	0	4291
1098.9755859375	0.2	FACES	1	0.418131717541655	1	0	0	4299
1100.12548828125	0.2	FACES	1	0.367093494413439	1	0	0	4307
1101.17529296875	0.2	SCRAMBLED	0	0.54286850944527	1	0	0	4315
1102.39501953125	0.2	SCRAMBLED	0	0.432684529400831	1	0	0	4323
