onset	duration	trial_type	trial_type_id	response_time	repsonse_accuracy	bad_epoch	outliers	direction	name_direction	event_num
26.083984375	0.2	COHERENT	1	0.610123007527363	1	0	0	180	LEFT	1
27.32373046875	0.2	COHERENT	1	0.812921827196078	1	0	0	0	RIGHT	5
29.00341796875	0.2	COHERENT	1	NaN	0	0	1	0	RIGHT	8
30.24365234375	0.2	RANDOM	0	0.843516448091577	1	0	0	0	NONE	12
31.8232421875	0.2	COHERENT	1	0.509373468140438	1	0	0	180	LEFT	15
32.943359375	0.2	RANDOM	0	0.828052368751742	1	0	0	0	NONE	19
34.38330078125	0.2	COHERENT	1	0.618214845419971	1	0	0	180	LEFT	23
35.89306640625	0.2	RANDOM	0	0.569658988556512	1	0	0	0	NONE	26
37.3330078125	0.2	RANDOM	0	0.604658722933891	1	0	0	0	NONE	30
38.802734375	0.2	RANDOM	0	0.570072213193271	1	0	0	0	NONE	34
40.08251953125	0.2	RANDOM	0	0.543360817248868	1	0	0	0	NONE	38
41.3525390625	0.2	RANDOM	0	0.504235778915245	1	0	0	0	NONE	42
42.58251953125	0.2	RANDOM	0	0.684935381205833	1	0	0	0	NONE	46
43.87255859375	0.2	RANDOM	0	0.667899599392513	1	0	0	0	NONE	50
45.33203125	0.2	RANDOM	0	0.698690117139449	1	0	0	0	NONE	54
46.7421875	0.2	RANDOM	0	0.648402882248774	1	0	0	0	NONE	58
48.171875	0.2	RANDOM	0	0.504995520633202	1	0	0	0	NONE	62
49.32177734375	0.2	RANDOM	0	0.618125801396673	1	0	0	0	NONE	66
50.66162109375	0.2	RANDOM	0	0.505526766331059	1	0	0	0	NONE	70
51.82177734375	0.2	RANDOM	0	0.517818765530137	1	0	0	0	NONE	74
53.01171875	0.2	RANDOM	0	0.573410609459643	1	0	0	0	NONE	78
54.21142578125	0.2	COHERENT	1	0.573868205186955	1	0	0	180	LEFT	82
55.611328125	0.2	RANDOM	0	0.583267330080162	1	0	0	0	NONE	86
56.79150390625	0.2	COHERENT	1	0.538206526594877	1	0	0	0	RIGHT	90
58.111328125	0.2	RANDOM	0	0.684957113983728	1	0	0	0	NONE	94
59.60107421875	0.2	COHERENT	1	0.68857592346194	1	0	0	180	LEFT	98
61.0009765625	0.2	RANDOM	0	0.598630593473899	1	0	0	0	NONE	102
62.3310546875	0.2	RANDOM	0	0.609463478064754	1	0	0	0	NONE	106
63.630859375	0.2	COHERENT	1	0.623219119532223	1	0	0	180	LEFT	110
65.07080078125	0.2	RANDOM	0	0.584101627301607	1	0	0	0	NONE	114
66.49072265625	0.2	COHERENT	1	0.634910750723066	1	0	0	180	LEFT	118
67.970703125	0.2	RANDOM	0	0.619869253188881	1	0	0	0	NONE	122
NaN	0.2	RANDOM	0	0.802324984726511	1	1	0	0	NONE	NaN
70.8203125	0.2	RANDOM	0	0.789392774092448	1	0	0	0	NONE	125
72.3603515625	0.2	COHERENT	1	0.559153001176128	1	0	0	180	LEFT	128
73.7900390625	0.2	COHERENT	1	NaN	0	0	1	180	LEFT	132
75.02978515625	0.2	RANDOM	0	0.769630434099781	1	0	0	0	NONE	136
76.48974609375	0.2	RANDOM	0	0.838549300808154	1	0	0	0	NONE	140
78.0595703125	0.2	RANDOM	0	0.6744381473045	1	0	0	0	NONE	143
79.4296875	0.2	RANDOM	0	0.758232497265453	1	0	0	0	NONE	147
80.8095703125	0.2	COHERENT	1	0.633076745684775	1	0	0	0	RIGHT	151
82.16943359375	0.2	COHERENT	1	0.72485698624314	1	0	0	0	RIGHT	155
83.619140625	0.2	COHERENT	1	0.674404642604713	1	0	0	0	RIGHT	159
84.91943359375	0.2	RANDOM	0	0.723337502807226	1	0	0	0	NONE	163
86.34912109375	0.2	COHERENT	1	0.598277435821728	1	0	0	180	LEFT	167
87.56884765625	0.2	COHERENT	1	NaN	0	0	1	0	RIGHT	171
88.88916015625	0.2	RANDOM	0	0.997965268605185	1	0	0	0	NONE	175
90.56884765625	0.2	RANDOM	0	1.12780262290471	1	0	0	0	NONE	178
92.60888671875	0.2	RANDOM	0	1.1994232965726	1	0	0	0	NONE	180
94.57861328125	0.2	COHERENT	1	0.614294493638226	1	0	0	0	RIGHT	182
95.88818359375	0.2	RANDOM	0	NaN	0	0	1	0	NONE	186
97.828125	0.2	RANDOM	0	0.844762460730635	1	0	0	0	NONE	187
99.30810546875	0.2	COHERENT	1	0.538588963128859	1	0	0	180	LEFT	191
100.7080078125	0.2	COHERENT	1	0.64961629572008	1	0	0	0	RIGHT	195
102.1279296875	0.2	COHERENT	1	0.614267931353425	1	0	0	180	LEFT	199
NaN	0.2	COHERENT	1	0.559004795700275	1	1	0	0	RIGHT	NaN
NaN	0.2	COHERENT	1	NaN	0	1	1	0	RIGHT	NaN
106.54736328125	0.2	COHERENT	1	0.808677294799963	1	0	0	0	RIGHT	201
108.08740234375	0.2	RANDOM	0	0.644652166878586	1	0	0	0	NONE	204
109.33740234375	0.2	COHERENT	1	0.79839437024475	1	0	0	0	RIGHT	208
110.83740234375	0.2	RANDOM	0	0.718161177530419	1	0	0	0	NONE	212
112.4072265625	0.2	COHERENT	1	0.889084349743825	1	0	0	180	LEFT	215
113.93701171875	0.2	COHERENT	1	0.638506921890439	1	0	0	0	RIGHT	218
115.48681640625	0.2	COHERENT	1	0.618646784393604	1	0	0	0	RIGHT	221
116.806640625	0.2	RANDOM	0	0.788393368121433	1	0	0	0	NONE	225
118.3466796875	0.2	COHERENT	1	0.729211993596437	1	0	0	180	LEFT	228
119.94677734375	0.2	COHERENT	1	0.703943714518573	1	0	0	180	LEFT	231
121.32666015625	0.2	COHERENT	1	0.712963723162829	1	0	0	180	LEFT	235
122.91650390625	0.2	RANDOM	0	1.03466257446507	1	0	0	0	NONE	238
124.59619140625	0.2	RANDOM	0	0.808433706572941	1	0	0	0	NONE	240
126.13623046875	0.2	COHERENT	1	0.654053706525701	1	0	0	0	RIGHT	243
127.49609375	0.2	RANDOM	0	NaN	0	0	1	0	NONE	247
128.8857421875	0.2	RANDOM	0	1.04985529591613	1	0	0	0	NONE	251
130.70556640625	0.2	COHERENT	1	0.694741995696859	1	0	0	180	LEFT	253
132.005859375	0.2	COHERENT	1	NaN	0	0	1	180	LEFT	257
133.95556640625	0.2	RANDOM	0	NaN	0	0	1	0	NONE	258
135.0751953125	0.2	RANDOM	0	NaN	0	0	1	0	NONE	262
136.97509765625	0.2	RANDOM	0	0.768620161739818	1	0	0	0	NONE	263
138.4453125	0.2	RANDOM	0	0.758621272526398	1	0	0	0	NONE	267
140.10498046875	0.2	COHERENT	1	0.639391023396456	1	0	0	0	RIGHT	270
141.625	0.2	COHERENT	1	0.753313343201626	1	0	0	180	LEFT	273
142.99462890625	0.2	RANDOM	0	0.642826915322075	1	0	0	0	NONE	277
144.31494140625	0.2	COHERENT	1	0.913866659744599	1	0	0	180	LEFT	281
146.0146484375	0.2	COHERENT	1	0.974632716041924	1	0	0	180	LEFT	284
147.66455078125	0.2	COHERENT	1	0.673420932528643	1	0	0	180	LEFT	287
149.1142578125	0.2	RANDOM	0	0.674302015594549	1	0	0	0	NONE	291
150.68408203125	0.2	RANDOM	0	0.569105708234929	1	0	0	0	NONE	294
151.93408203125	0.2	RANDOM	0	0.702664197178819	1	0	0	0	NONE	298
153.25390625	0.2	RANDOM	0	0.923715532417191	1	0	0	0	NONE	302
154.90380859375	0.2	COHERENT	1	0.744370304813856	1	0	0	180	LEFT	305
156.37353515625	0.2	RANDOM	0	0.794357506622873	1	0	0	0	NONE	309
158.0234375	0.2	COHERENT	1	NaN	0	0	1	0	RIGHT	312
160.0234375	0.2	RANDOM	0	NaN	0	0	1	0	NONE	313
161.8232421875	0.2	COHERENT	1	NaN	1	0	1	180	LEFT	314
162.72314453125	0.2	RANDOM	0	NaN	0	0	1	0	NONE	317
164.73291015625	0.2	RANDOM	0	0.900071476694393	1	0	0	0	NONE	318
166.462890625	0.2	COHERENT	1	0.615118226315644	1	0	0	0	RIGHT	321
167.74267578125	0.2	COHERENT	1	0.583024949230094	1	0	0	180	LEFT	325
169.03271484375	0.2	COHERENT	1	0.557875898589373	1	0	0	0	RIGHT	329
170.20263671875	0.2	RANDOM	0	0.608623445804369	1	0	0	0	NONE	333
171.482421875	0.2	COHERENT	1	0.593452155288105	1	0	0	180	LEFT	337
172.87255859375	0.2	COHERENT	1	0.879210725850498	1	0	0	0	RIGHT	341
174.45263671875	0.2	RANDOM	0	0.558048855285961	1	0	0	0	NONE	344
175.732421875	0.2	COHERENT	1	0.43488829351827	1	0	0	180	LEFT	348
177.02197265625	0.2	COHERENT	1	0.430278227860981	1	0	0	180	LEFT	352
178.22216796875	0.2	COHERENT	1	0.543639721240652	1	0	0	180	LEFT	356
179.44189453125	0.2	RANDOM	0	0.543414243663392	1	0	0	0	NONE	360
180.7919921875	0.2	COHERENT	1	0.569319715735219	1	0	0	0	RIGHT	364
181.9619140625	0.2	COHERENT	1	0.55807179544172	1	0	0	180	LEFT	368
183.1416015625	0.2	RANDOM	0	0.642944030850231	1	0	0	0	NONE	372
184.6416015625	0.2	COHERENT	1	0.529828238606569	1	0	0	180	LEFT	376
185.83154296875	0.2	COHERENT	1	0.608611975727399	1	0	0	0	RIGHT	380
187.0615234375	0.2	RANDOM	0	0.683445780339753	1	0	0	0	NONE	384
188.611328125	0.2	COHERENT	1	0.534275308424185	1	0	0	0	RIGHT	387
189.93115234375	0.2	RANDOM	0	0.594092366723089	1	0	0	0	NONE	391
191.2509765625	0.2	RANDOM	0	0.794866415854813	1	0	0	0	NONE	395
192.77099609375	0.2	RANDOM	0	0.654797148659782	1	0	0	0	NONE	398
NaN	0.2	RANDOM	0	0.597457928963195	1	1	0	0	NONE	NaN
195.720703125	0.2	COHERENT	1	0.679197022126573	1	0	0	180	LEFT	402
197.220703125	0.2	RANDOM	0	0.574171256709633	1	0	0	0	NONE	406
198.62060546875	0.2	RANDOM	0	0.724965348292244	1	0	0	0	NONE	410
200.26025390625	0.2	RANDOM	0	0.670054162913402	1	0	0	0	NONE	413
201.5205078125	0.2	RANDOM	0	0.69747277969509	1	0	0	0	NONE	417
202.9404296875	0.2	COHERENT	1	0.574387075274899	1	0	0	180	LEFT	421
204.18994140625	0.2	COHERENT	1	0.643618048830831	1	0	0	0	RIGHT	425
205.64013671875	0.2	RANDOM	0	0.439073966304932	1	0	0	0	NONE	429
206.830078125	0.2	COHERENT	1	1.03985912329972	1	0	0	0	RIGHT	433
208.759765625	0.2	COHERENT	1	0.669613772303819	1	0	0	0	RIGHT	435
210.099609375	0.2	COHERENT	1	0.678557414378702	1	0	0	0	RIGHT	439
211.49951171875	0.2	COHERENT	1	0.664302824536207	1	0	0	0	RIGHT	443
212.82958984375	0.2	COHERENT	1	NaN	0	0	1	180	LEFT	447
214.3291015625	0.2	COHERENT	1	1.04988849877191	1	0	0	0	RIGHT	451
216.16943359375	0.2	COHERENT	1	0.714416197198261	1	0	0	0	RIGHT	453
217.7490234375	0.2	COHERENT	1	0.634575401875736	1	0	0	0	RIGHT	456
219.13916015625	0.2	COHERENT	1	0.609367793471392	1	0	0	0	RIGHT	460
220.458984375	0.2	COHERENT	1	0.758179070850929	1	0	0	0	RIGHT	464
221.85888671875	0.2	COHERENT	1	0.647970641431129	1	0	0	0	RIGHT	468
223.30859375	0.2	RANDOM	0	0.639805455410169	1	0	0	0	NONE	472
224.62841796875	0.2	RANDOM	0	0.543596859371974	1	0	0	0	NONE	476
225.7783203125	0.2	COHERENT	1	0.668395529326517	1	0	0	180	LEFT	480
227.33837890625	0.2	COHERENT	1	0.669088563487094	1	0	0	180	LEFT	483
228.6083984375	0.2	COHERENT	1	0.578140809087017	1	0	0	0	RIGHT	487
230.0283203125	0.2	RANDOM	0	0.670880008499807	1	0	0	0	NONE	491
231.47802734375	0.2	RANDOM	0	1.17440947211071	1	0	0	0	NONE	495
233.27783203125	0.2	RANDOM	0	0.573477920704136	1	0	0	0	NONE	497
234.56787109375	0.2	RANDOM	0	0.538393971810365	1	0	0	0	NONE	501
235.7978515625	0.2	COHERENT	1	0.588111928639591	1	0	0	180	LEFT	505
237.03759765625	0.2	RANDOM	0	NaN	0	0	1	0	NONE	509
238.517578125	0.2	COHERENT	1	1.0688545739049	1	0	0	0	RIGHT	513
240.25732421875	0.2	COHERENT	1	0.708601773395458	1	0	0	180	LEFT	515
NaN	0.2	COHERENT	1	0.65820376170268	1	1	0	180	LEFT	NaN
266.08544921875	0.2	COHERENT	1	0.540330302013899	1	0	0	0	RIGHT	519
267.2451171875	0.2	COHERENT	1	0.518375667980763	1	0	0	180	LEFT	523
268.5751953125	0.2	RANDOM	0	0.595124673705868	1	0	0	0	NONE	527
NaN	0.2	RANDOM	0	0.854774329241991	1	1	0	0	NONE	NaN
271.51513671875	0.2	RANDOM	0	0.627574428729531	1	0	0	0	NONE	530
272.875	0.2	RANDOM	0	0.539358363859719	1	0	0	0	NONE	534
274.02490234375	0.2	COHERENT	1	0.748183803767461	1	0	0	0	RIGHT	538
275.53466796875	0.2	RANDOM	0	0.988855008559767	1	0	0	0	NONE	541
277.234375	0.2	COHERENT	1	NaN	0	0	1	0	RIGHT	544
278.6845703125	0.2	COHERENT	1	0.744705955506106	1	0	0	180	LEFT	548
280.154296875	0.2	RANDOM	0	0.584460821836728	1	0	0	0	NONE	552
281.333984375	0.2	RANDOM	0	1.03834235646082	1	0	0	0	NONE	556
283.154296875	0.2	COHERENT	1	0.563907650180226	1	0	0	0	RIGHT	558
284.423828125	0.2	COHERENT	1	0.699036936064658	1	0	0	0	RIGHT	562
285.82373046875	0.2	RANDOM	0	0.747812233622426	1	0	0	0	NONE	566
287.2939453125	0.2	RANDOM	0	0.554605417257335	1	0	0	0	NONE	570
288.49365234375	0.2	RANDOM	0	0.538544592040125	1	0	0	0	NONE	574
289.8037109375	0.2	COHERENT	1	0.824264526551815	1	0	0	0	RIGHT	578
291.513671875	0.2	RANDOM	0	NaN	0	0	1	0	NONE	581
293.46337890625	0.2	RANDOM	0	0.638810577102049	1	0	0	0	NONE	582
294.96337890625	0.2	COHERENT	1	0.624833382030374	1	0	0	180	LEFT	586
296.2431640625	0.2	RANDOM	0	0.587403500426262	1	0	0	0	NONE	590
297.56298828125	0.2	RANDOM	0	0.604318544579655	1	0	0	0	NONE	594
299.0126953125	0.2	RANDOM	0	0.449296220186625	1	0	0	0	NONE	598
300.06298828125	0.2	COHERENT	1	0.527870175625139	1	0	0	0	RIGHT	602
301.302734375	0.2	RANDOM	0	0.667808744304239	1	0	0	0	NONE	606
302.57275390625	0.2	COHERENT	1	0.647590921493247	1	0	0	180	LEFT	610
303.97265625	0.2	COHERENT	1	0.639394041837477	1	0	0	0	RIGHT	614
305.3525390625	0.2	COHERENT	1	NaN	0	0	1	180	LEFT	618
306.75244140625	0.2	RANDOM	0	0.894047573052376	1	0	0	0	NONE	622
308.47216796875	0.2	RANDOM	0	0.513870040398615	1	0	0	0	NONE	625
309.65185546875	0.2	RANDOM	0	0.733779197385047	1	0	0	0	NONE	629
311.162109375	0.2	COHERENT	1	0.514519005314469	1	0	0	0	RIGHT	632
312.32177734375	0.2	COHERENT	1	1.13832641908994	1	0	0	180	LEFT	636
314.32177734375	0.2	COHERENT	1	0.889826886344963	1	0	0	0	RIGHT	638
315.83154296875	0.2	RANDOM	0	0.643853789109926	1	0	0	0	NONE	641
317.13134765625	0.2	RANDOM	0	1.07780636577263	1	0	0	0	NONE	645
318.83154296875	0.2	RANDOM	0	0.703557957698649	1	0	0	0	NONE	647
320.1611328125	0.2	RANDOM	0	0.533376718399268	1	0	0	0	NONE	651
321.60107421875	0.2	RANDOM	0	0.459307183166857	1	0	0	0	NONE	655
322.880859375	0.2	RANDOM	0	0.475106913197124	1	0	0	0	NONE	659
324.02099609375	0.2	RANDOM	0	0.548906297917711	1	0	0	0	NONE	663
325.1806640625	0.2	COHERENT	1	0.732775565596057	1	0	0	180	LEFT	667
326.640625	0.2	COHERENT	1	0.68445152503773	1	0	0	0	RIGHT	671
327.95068359375	0.2	COHERENT	1	0.613090135491802	1	0	0	0	RIGHT	675
329.24072265625	0.2	COHERENT	1	0.523267656071766	1	0	0	0	RIGHT	679
330.470703125	0.2	RANDOM	0	0.738026748220364	1	0	0	0	NONE	683
332.01025390625	0.2	COHERENT	1	0.538854284134686	1	0	0	0	RIGHT	686
333.4404296875	0.2	RANDOM	0	0.669640334588621	1	0	0	0	NONE	690
334.72998046875	0.2	COHERENT	1	0.778515820255052	1	0	0	0	RIGHT	694
336.18017578125	0.2	RANDOM	0	0.963278848452319	1	0	0	0	NONE	698
338.0498046875	0.2	RANDOM	0	0.679067530987595	1	0	0	0	NONE	701
339.40966796875	0.2	COHERENT	1	0.91785824674389	1	0	0	0	RIGHT	705
341.0498046875	0.2	COHERENT	1	0.648409824665578	1	0	0	180	LEFT	708
342.4697265625	0.2	COHERENT	1	0.564929694461171	1	0	0	0	RIGHT	712
343.87939453125	0.2	COHERENT	1	0.528331393481494	1	0	0	0	RIGHT	716
345.2294921875	0.2	RANDOM	0	0.694123818883781	1	0	0	0	NONE	720
346.83935546875	0.2	COHERENT	1	NaN	0	0	1	180	LEFT	723
348.18896484375	0.2	COHERENT	1	0.919837740660114	1	0	0	180	LEFT	727
350.0087890625	0.2	COHERENT	1	0.659668309504013	1	0	0	180	LEFT	730
351.36865234375	0.2	RANDOM	0	0.728466136708448	1	0	0	0	NONE	734
352.8388671875	0.2	RANDOM	0	1.01895098292516	1	0	0	0	NONE	738
354.6787109375	0.2	COHERENT	1	1.16998172031799	1	0	0	0	RIGHT	740
356.65869140625	0.2	RANDOM	0	0.744370606658777	1	0	0	0	NONE	742
358.05859375	0.2	COHERENT	1	0.648805844186427	1	0	0	180	LEFT	746
359.30810546875	0.2	RANDOM	0	0.698216523673182	1	0	0	0	NONE	750
360.658203125	0.2	RANDOM	0	0.638237073222626	1	0	0	0	NONE	754
362.0478515625	0.2	COHERENT	1	NaN	0	0	1	180	LEFT	758
363.26806640625	0.2	RANDOM	0	1.00476098773106	1	0	0	0	NONE	762
365.177734375	0.2	COHERENT	1	0.759357470401483	1	0	0	0	RIGHT	764
366.837890625	0.2	RANDOM	0	0.65920437504974	1	0	0	0	NONE	767
368.3173828125	0.2	RANDOM	0	0.503237882165195	1	0	0	0	NONE	771
369.50732421875	0.2	RANDOM	0	0.483048432703981	1	0	0	0	NONE	775
370.58740234375	0.2	RANDOM	0	0.517852572074844	1	0	0	0	NONE	779
371.9375	0.2	COHERENT	1	0.764763499073524	1	0	0	0	RIGHT	783
373.3671875	0.2	COHERENT	1	0.493606337277924	1	0	0	180	LEFT	787
374.72705078125	0.2	RANDOM	0	0.639330956410959	1	0	0	0	NONE	791
376.22705078125	0.2	RANDOM	0	0.634166101212031	1	0	0	0	NONE	795
377.47705078125	0.2	RANDOM	0	0.818029030162506	1	0	0	0	NONE	799
379.14697265625	0.2	RANDOM	0	0.599811105933441	1	0	0	0	NONE	802
380.57666015625	0.2	COHERENT	1	0.81955455048228	1	0	0	0	RIGHT	806
NaN	0.2	RANDOM	0	NaN	0	1	1	0	NONE	NaN
384.17626953125	0.2	COHERENT	1	0.548861926828067	1	0	0	180	LEFT	808
385.34619140625	0.2	COHERENT	1	0.614040340866268	1	0	0	0	RIGHT	812
386.71630859375	0.2	COHERENT	1	0.459894873720259	1	0	0	180	LEFT	816
387.7958984375	0.2	COHERENT	1	0.533801111269895	1	0	0	180	LEFT	820
388.98583984375	0.2	COHERENT	1	0.508545509645955	1	0	0	0	RIGHT	824
390.255859375	0.2	COHERENT	1	0.470098111421976	1	0	0	180	LEFT	828
391.3857421875	0.2	COHERENT	1	0.592274963114505	1	0	0	180	LEFT	832
392.65576171875	0.2	COHERENT	1	0.493047623762322	1	0	0	0	RIGHT	836
393.8056640625	0.2	RANDOM	0	0.697840425866161	1	0	0	0	NONE	840
395.1357421875	0.2	COHERENT	1	0.812864778651601	1	0	0	180	LEFT	844
396.775390625	0.2	COHERENT	1	0.624518558585805	1	0	0	180	LEFT	847
398.22509765625	0.2	RANDOM	0	0.585215432204677	1	0	0	0	NONE	851
399.55517578125	0.2	COHERENT	1	0.468240562540814	1	0	0	180	LEFT	855
400.77490234375	0.2	COHERENT	1	0.619042200226431	1	0	0	0	RIGHT	859
402.2451171875	0.2	RANDOM	0	0.549825715189399	1	0	0	0	NONE	863
403.56494140625	0.2	COHERENT	1	0.524748805300987	1	0	0	180	LEFT	867
404.69482421875	0.2	COHERENT	1	0.608600203805508	1	0	0	180	LEFT	871
406.08447265625	0.2	COHERENT	1	0.754296147743844	1	0	0	0	RIGHT	875
407.71435546875	0.2	RANDOM	0	0.774101953294121	1	0	0	0	NONE	878
409.28466796875	0.2	RANDOM	0	0.619876799293706	1	0	0	0	NONE	881
410.68408203125	0.2	COHERENT	1	0.754655644123886	1	0	0	180	LEFT	885
412.2841796875	0.2	RANDOM	0	1.01952780708962	1	0	0	0	NONE	888
414.2041015625	0.2	COHERENT	1	0.719076067140122	1	0	0	180	LEFT	890
415.60400390625	0.2	RANDOM	0	NaN	0	0	1	0	NONE	894
417.49365234375	0.2	RANDOM	0	0.567815022662217	1	0	0	0	NONE	895
418.94384765625	0.2	COHERENT	1	0.724732626455079	1	0	0	0	RIGHT	899
420.50341796875	0.2	COHERENT	1	0.488585159892864	1	0	0	180	LEFT	902
421.763671875	0.2	RANDOM	0	0.759477302527557	1	0	0	0	NONE	906
423.29345703125	0.2	RANDOM	0	0.803827866734537	1	0	0	0	NONE	909
424.89306640625	0.2	RANDOM	0	0.599954481902387	1	0	0	0	NONE	912
426.1630859375	0.2	COHERENT	1	0.822820805996344	1	0	0	0	RIGHT	916
427.89306640625	0.2	RANDOM	0	0.769278181980553	1	0	0	0	NONE	919
429.48291015625	0.2	COHERENT	1	0.804525730402929	1	0	0	180	LEFT	922
431.16259765625	0.2	RANDOM	0	1.00419472811063	1	0	0	0	NONE	925
432.7724609375	0.2	RANDOM	0	0.65798100072152	1	0	0	0	NONE	927
434.28271484375	0.2	RANDOM	0	0.579745110728254	1	0	0	0	NONE	930
435.5322265625	0.2	COHERENT	1	NaN	0	0	1	180	LEFT	934
436.65234375	0.2	COHERENT	1	0.923486432709069	1	0	0	180	LEFT	938
438.40234375	0.2	COHERENT	1	0.374261387372826	1	0	0	180	LEFT	941
439.40234375	0.2	COHERENT	1	0.483097633300531	1	0	0	180	LEFT	945
440.5419921875	0.2	RANDOM	0	0.878153969492814	1	0	0	0	NONE	949
442.19189453125	0.2	RANDOM	0	0.81475311563554	1	0	0	0	NONE	952
443.86181640625	0.2	COHERENT	1	0.849506847032899	1	0	0	0	RIGHT	955
445.41162109375	0.2	RANDOM	0	0.658326914113786	1	0	0	0	NONE	958
446.841796875	0.2	COHERENT	1	1.1940233047826	1	0	0	180	LEFT	962
448.91162109375	0.2	COHERENT	1	0.684805588221934	1	0	0	0	RIGHT	964
450.38134765625	0.2	RANDOM	0	NaN	0	0	1	0	NONE	968
451.7509765625	0.2	RANDOM	0	0.709525416484212	1	0	0	0	NONE	972
453.22119140625	0.2	RANDOM	0	0.569972000937014	1	0	0	0	NONE	976
454.60107421875	0.2	RANDOM	0	0.563123760929557	1	0	0	0	NONE	980
455.9208984375	0.2	COHERENT	1	0.709997802574435	1	0	0	180	LEFT	984
457.49072265625	0.2	RANDOM	0	0.69977192656188	1	0	0	0	NONE	987
458.8408203125	0.2	COHERENT	1	0.798551631044575	1	0	0	0	RIGHT	991
460.25048828125	0.2	COHERENT	1	0.593467549339039	1	0	0	0	RIGHT	995
461.6103515625	0.2	COHERENT	1	0.609273014408245	1	0	0	0	RIGHT	999
462.89013671875	0.2	RANDOM	0	NaN	0	0	1	0	NONE	1003
464.7099609375	0.2	RANDOM	0	NaN	0	0	1	0	NONE	1004
466.06005859375	0.2	COHERENT	1	NaN	0	0	1	0	RIGHT	1008
468.0400390625	0.2	RANDOM	0	0.779207647040494	1	0	0	0	NONE	1009
469.6298828125	0.2	RANDOM	0	0.709147809456226	1	0	0	0	NONE	1012
470.99951171875	0.2	COHERENT	1	1.01799534435577	1	0	0	0	RIGHT	1016
472.7294921875	0.2	COHERENT	1	0.695318216174201	1	0	0	0	RIGHT	1018
474.32958984375	0.2	COHERENT	1	0.668579956099165	1	0	0	180	LEFT	1021
475.79931640625	0.2	COHERENT	1	0.539454953986933	1	0	0	180	LEFT	1025
477.21923828125	0.2	COHERENT	1	0.785333875847755	1	0	0	0	RIGHT	1029
478.76904296875	0.2	RANDOM	0	0.693758285621698	1	0	0	0	NONE	1032
480.3388671875	0.2	RANDOM	0	0.625080592387349	1	0	0	0	NONE	1035
NaN	0.2	RANDOM	0	NaN	0	1	1	0	NONE	NaN
501.787109375	0.2	RANDOM	0	NaN	1	0	1	0	NONE	1037
502.63720703125	0.2	RANDOM	0	0.589980343908792	1	0	0	0	NONE	1042
504.05712890625	0.2	COHERENT	1	NaN	0	0	1	0	RIGHT	1046
505.4072265625	0.2	COHERENT	1	0.764568205911019	1	0	0	0	RIGHT	1050
507.0068359375	0.2	RANDOM	0	0.544453191217144	1	0	0	0	NONE	1053
508.376953125	0.2	COHERENT	1	0.554282745863929	1	0	0	0	RIGHT	1057
509.57666015625	0.2	RANDOM	0	0.518069899860166	1	0	0	0	NONE	1061
510.8466796875	0.2	COHERENT	1	0.550007123521937	1	0	0	180	LEFT	1065
NaN	0.2	RANDOM	0	0.947764361140798	1	1	0	0	NONE	NaN
513.84619140625	0.2	RANDOM	0	0.649510348423973	1	0	0	0	NONE	1068
515.1962890625	0.2	COHERENT	1	0.758317919158799	1	0	0	180	LEFT	1072
516.54638671875	0.2	COHERENT	1	0.678213915740344	1	0	0	180	LEFT	1076
518.0361328125	0.2	COHERENT	1	0.570064667090264	1	0	0	180	LEFT	1080
519.48583984375	0.2	COHERENT	1	NaN	0	0	1	0	RIGHT	1084
521.10595703125	0.2	RANDOM	0	0.819315791761255	1	0	0	0	NONE	1087
522.765625	0.2	COHERENT	1	0.74893569753749	1	0	0	0	RIGHT	1090
524.275390625	0.2	COHERENT	1	0.559068484814816	1	0	0	0	RIGHT	1093
525.45556640625	0.2	COHERENT	1	0.533192593468812	1	0	0	180	LEFT	1097
526.85546875	0.2	RANDOM	0	0.674975429886217	1	0	0	0	NONE	1101
528.4453125	0.2	RANDOM	0	0.588732822049678	1	0	0	0	NONE	1104
529.875	0.2	RANDOM	0	0.499497429495023	1	0	0	0	NONE	1108
530.9951171875	0.2	RANDOM	0	0.553306581892684	1	0	0	0	NONE	1112
532.31494140625	0.2	RANDOM	0	0.509223149755599	1	0	0	0	NONE	1116
533.51513671875	0.2	RANDOM	0	0.558023198533192	1	0	0	0	NONE	1120
534.974609375	0.2	RANDOM	0	0.729914384925905	1	0	0	0	NONE	1124
536.5947265625	0.2	COHERENT	1	0.549592389663303	1	0	0	180	LEFT	1127
537.8447265625	0.2	COHERENT	1	0.478490887929183	1	0	0	0	RIGHT	1131
539.16455078125	0.2	COHERENT	1	0.654152711405914	1	0	0	0	RIGHT	1135
540.46435546875	0.2	RANDOM	0	0.628049833261684	1	0	0	0	NONE	1139
541.814453125	0.2	RANDOM	0	0.524994506436997	1	0	0	0	NONE	1143
543.234375	0.2	RANDOM	0	0.519937409597333	1	0	0	0	NONE	1147
544.6240234375	0.2	COHERENT	1	0.669671122690488	1	0	0	180	LEFT	1151
546.0341796875	0.2	RANDOM	0	0.659486901171476	1	0	0	0	NONE	1155
547.52392578125	0.2	RANDOM	0	NaN	0	0	1	0	NONE	1159
548.82373046875	0.2	COHERENT	1	0.743749109559758	1	0	0	0	RIGHT	1163
550.19384765625	0.2	RANDOM	0	1.04277010825353	1	0	0	0	NONE	1167
551.96337890625	0.2	COHERENT	1	1.02454958816452	1	0	0	180	LEFT	1169
553.61328125	0.2	RANDOM	0	0.673436930269418	1	0	0	0	NONE	1171
554.943359375	0.2	RANDOM	0	NaN	0	0	1	0	NONE	1175
556.86328125	0.2	RANDOM	0	1.10397232934338	1	0	0	0	NONE	1176
558.712890625	0.2	RANDOM	0	0.609878513767399	1	0	0	0	NONE	1178
560.052734375	0.2	COHERENT	1	0.624651671853826	1	0	0	0	RIGHT	1182
561.3330078125	0.2	COHERENT	1	0.948315830397405	1	0	0	0	RIGHT	1186
562.982421875	0.2	COHERENT	1	NaN	0	0	1	180	LEFT	1189
564.1328125	0.2	COHERENT	1	0.65320884475841	1	0	0	180	LEFT	1193
565.482421875	0.2	RANDOM	0	0.677998097174168	1	0	0	0	NONE	1197
567.05224609375	0.2	RANDOM	0	0.719735596600913	1	0	0	0	NONE	1200
568.4521484375	0.2	COHERENT	1	NaN	0	0	1	0	RIGHT	1204
569.77197265625	0.2	COHERENT	1	1.13444560889275	1	0	0	180	LEFT	1208
571.72216796875	0.2	COHERENT	1	0.714015348170506	1	0	0	0	RIGHT	1210
573.24169921875	0.2	COHERENT	1	0.649750918209975	1	0	0	180	LEFT	1213
574.591796875	0.2	RANDOM	0	0.748573786405359	1	0	0	0	NONE	1217
575.94189453125	0.2	RANDOM	0	0.908512548265207	1	0	0	0	NONE	1221
577.63134765625	0.2	RANDOM	0	0.454501824345243	1	0	0	0	NONE	1224
578.91162109375	0.2	COHERENT	1	0.784246029541464	1	0	0	0	RIGHT	1228
580.3115234375	0.2	COHERENT	1	0.603047478876761	1	0	0	0	RIGHT	1232
581.75146484375	0.2	COHERENT	1	0.45483656950546	1	0	0	0	RIGHT	1236
582.8310546875	0.2	COHERENT	1	0.693723875388969	1	0	0	180	LEFT	1240
584.37109375	0.2	COHERENT	1	0.648526940193733	1	0	0	180	LEFT	1243
585.62109375	0.2	COHERENT	1	0.478073739317551	1	0	0	180	LEFT	1247
NaN	0.2	COHERENT	1	0.813309395080068	1	1	0	180	LEFT	NaN
588.32080078125	0.2	COHERENT	1	0.654003298552198	1	0	0	180	LEFT	1250
589.720703125	0.2	COHERENT	1	0.779926036109828	1	0	0	0	RIGHT	1254
591.220703125	0.2	RANDOM	0	0.634685273144896	1	0	0	0	NONE	1258
592.71044921875	0.2	RANDOM	0	0.689493227825551	1	0	0	0	NONE	1262
594.17041015625	0.2	RANDOM	0	0.514378345942532	1	0	0	0	NONE	1266
595.3603515625	0.2	COHERENT	1	0.723065843075346	1	0	0	180	LEFT	1270
596.990234375	0.2	COHERENT	1	0.729925855003785	1	0	0	0	RIGHT	1273
598.330078125	0.2	COHERENT	1	0.747739187338993	1	0	0	0	RIGHT	1277
599.90966796875	0.2	RANDOM	0	0.729475201692367	1	0	0	0	NONE	1280
601.44970703125	0.2	COHERENT	1	0.549408566578677	1	0	0	180	LEFT	1283
602.6494140625	0.2	RANDOM	0	0.688196807212989	1	0	0	0	NONE	1287
604.16943359375	0.2	RANDOM	0	0.683970989155569	1	0	0	0	NONE	1290
605.49951171875	0.2	COHERENT	1	0.997878337490874	1	0	0	0	RIGHT	1294
607.3994140625	0.2	COHERENT	1	0.529269223246956	1	0	0	180	LEFT	1296
608.7490234375	0.2	COHERENT	1	0.604445319121623	1	0	0	180	LEFT	1300
610.09912109375	0.2	COHERENT	1	0.709089855380626	1	0	0	180	LEFT	1304
611.43896484375	0.2	RANDOM	0	0.763126598265444	1	0	0	0	NONE	1308
613.05859375	0.2	RANDOM	0	0.77962026798923	1	0	0	0	NONE	1311
614.5888671875	0.2	COHERENT	1	0.600919477640673	1	0	0	180	LEFT	1314
615.9384765625	0.2	COHERENT	1	0.619525452705602	1	0	0	180	LEFT	1318
617.2783203125	0.2	COHERENT	1	0.464260747462504	1	0	0	180	LEFT	1322
618.3984375	0.2	RANDOM	0	0.838219385155753	1	0	0	0	NONE	1326
620.1083984375	0.2	COHERENT	1	1.09491036436157	1	0	0	0	RIGHT	1329
622.0283203125	0.2	RANDOM	0	0.544478546124992	1	0	0	0	NONE	1331
623.34814453125	0.2	RANDOM	0	0.644492491324854	1	0	0	0	NONE	1335
624.748046875	0.2	COHERENT	1	0.52938603693201	1	0	0	180	LEFT	1339
625.94775390625	0.2	RANDOM	0	0.713211839051837	1	0	0	0	NONE	1343
627.4677734375	0.2	COHERENT	1	NaN	0	0	1	180	LEFT	1346
629.11767578125	0.2	COHERENT	1	0.67895313205554	1	0	0	0	RIGHT	1349
630.45751953125	0.2	COHERENT	1	0.447636077377865	1	0	0	180	LEFT	1353
631.5576171875	0.2	RANDOM	0	0.648455403130356	1	0	0	0	NONE	1357
632.80712890625	0.2	RANDOM	0	0.798240127885038	1	0	0	0	NONE	1361
634.47705078125	0.2	RANDOM	0	0.834052426705966	1	0	0	0	NONE	1364
636.0068359375	0.2	COHERENT	1	0.677910864215846	1	0	0	180	LEFT	1367
637.3369140625	0.2	RANDOM	0	0.987712226619806	1	0	0	0	NONE	1371
639.1767578125	0.2	COHERENT	1	0.83945060743099	1	0	0	0	RIGHT	1374
640.74658203125	0.2	RANDOM	0	0.974247864754034	1	0	0	0	NONE	1377
642.49658203125	0.2	RANDOM	0	NaN	0	0	1	0	NONE	1380
644.56640625	0.2	RANDOM	0	0.854534363144921	1	0	0	0	NONE	1381
646.21630859375	0.2	COHERENT	1	0.699636398539951	1	0	0	180	LEFT	1384
647.71630859375	0.2	COHERENT	1	0.789398509131388	1	0	0	0	RIGHT	1388
649.13623046875	0.2	RANDOM	0	NaN	0	0	1	0	NONE	1392
650.5361328125	0.2	RANDOM	0	0.643998674300747	1	0	0	0	NONE	1396
651.81591796875	0.2	COHERENT	1	0.862916273263181	1	0	0	180	LEFT	1400
653.505859375	0.2	RANDOM	0	0.70469772119759	1	0	0	0	NONE	1403
654.9755859375	0.2	COHERENT	1	0.674277868062745	1	0	0	180	LEFT	1407
656.25537109375	0.2	COHERENT	1	0.838111023106649	1	0	0	180	LEFT	1411
NaN	0.2	COHERENT	1	0.869143318015631	1	1	0	0	RIGHT	NaN
659.3955078125	0.2	COHERENT	1	0.712907881995307	1	0	0	0	RIGHT	1415
660.8251953125	0.2	COHERENT	1	0.844450957570189	1	0	0	0	RIGHT	1419
662.5751953125	0.2	RANDOM	0	0.650327742375339	1	0	0	0	NONE	1422
663.89501953125	0.2	COHERENT	1	0.83238745439121	1	0	0	0	RIGHT	1426
665.4248046875	0.2	RANDOM	0	0.708028873204057	1	0	0	0	NONE	1429
666.99462890625	0.2	RANDOM	0	0.859900850235135	1	0	0	0	NONE	1432
668.53466796875	0.2	RANDOM	0	0.86284352882376	1	0	0	0	NONE	1435
670.25439453125	0.2	RANDOM	0	0.789204423344927	1	0	0	0	NONE	1438
671.7041015625	0.2	RANDOM	0	0.90322333327731	1	0	0	0	NONE	1442
673.484375	0.2	RANDOM	0	0.724138597172896	1	0	0	0	NONE	1445
674.93408203125	0.2	RANDOM	0	0.64493680590931	1	0	0	0	NONE	1449
676.48388671875	0.2	COHERENT	1	0.799707995972312	1	0	0	0	RIGHT	1452
677.99365234375	0.2	COHERENT	1	0.688508914061458	1	0	0	180	LEFT	1455
679.3037109375	0.2	RANDOM	0	0.673434515516419	1	0	0	0	NONE	1459
680.79345703125	0.2	RANDOM	0	0.744073893862151	1	0	0	0	NONE	1463
NaN	0.2	COHERENT	1	0.763905959852309	1	1	0	0	RIGHT	NaN
683.86328125	0.2	COHERENT	1	0.834491006251483	1	0	0	0	RIGHT	1466
685.34326171875	0.2	RANDOM	0	0.768631631817698	1	0	0	0	NONE	1470
686.88330078125	0.2	RANDOM	0	0.604391892708009	1	0	0	0	NONE	1473
688.212890625	0.2	COHERENT	1	1.10417305570172	1	0	0	0	RIGHT	1477
690.06298828125	0.2	COHERENT	1	0.999937518261504	1	0	0	0	RIGHT	1479
691.70263671875	0.2	RANDOM	0	0.762812378507988	1	0	0	0	NONE	1481
693.08251953125	0.2	COHERENT	1	0.643217199803985	1	0	0	0	RIGHT	1485
694.3828125	0.2	RANDOM	0	NaN	0	0	1	0	NONE	1489
696.25244140625	0.2	RANDOM	0	0.743926895762343	1	0	0	0	NONE	1490
697.80224609375	0.2	COHERENT	1	0.789911644181302	1	0	0	0	RIGHT	1493
699.34228515625	0.2	COHERENT	1	0.810771791337174	1	0	0	180	LEFT	1496
701.001953125	0.2	RANDOM	0	NaN	0	0	1	0	NONE	1499
702.8720703125	0.2	RANDOM	0	0.97335018026115	1	0	0	0	NONE	1500
704.69189453125	0.2	RANDOM	0	0.849341436440227	1	0	0	0	NONE	1503
706.3916015625	0.2	COHERENT	1	0.729903518536958	1	0	0	180	LEFT	1506
707.83154296875	0.2	RANDOM	0	NaN	0	0	1	0	NONE	1510
709.63134765625	0.2	COHERENT	1	0.808424651249879	1	0	0	0	RIGHT	1511
711.10107421875	0.2	COHERENT	1	0.678357593553301	1	0	0	0	RIGHT	1515
712.6513671875	0.2	RANDOM	0	0.644155029568537	1	0	0	0	NONE	1518
NaN	0.2	COHERENT	1	0.854904424068991	1	1	0	180	LEFT	NaN
715.65087890625	0.2	RANDOM	0	0.834721917024581	1	0	0	0	NONE	1521
717.0908203125	0.2	COHERENT	1	0.768708602075094	1	0	0	0	RIGHT	1525
718.75048828125	0.2	RANDOM	0	0.789334216327916	1	0	0	0	NONE	1528
720.29052734375	0.2	RANDOM	0	0.839101373752783	1	0	0	0	NONE	1531
NaN	0.2	COHERENT	1	0.721391211746777	1	1	0	0	RIGHT	NaN
NaN	0.2	RANDOM	0	0.712831817270853	1	1	0	0	NONE	NaN
739.8388671875	0.2	COHERENT	1	0.578417600169814	1	0	0	0	RIGHT	1535
741.0888671875	0.2	COHERENT	1	0.533399960398128	1	0	0	0	RIGHT	1539
742.35888671875	0.2	RANDOM	0	0.654347400880397	1	0	0	0	NONE	1543
743.65869140625	0.2	RANDOM	0	0.59807821868435	1	0	0	0	NONE	1547
745.15869140625	0.2	COHERENT	1	0.559982167048474	1	0	0	180	LEFT	1551
746.37841796875	0.2	COHERENT	1	0.637876973155471	1	0	0	0	RIGHT	1555
747.87841796875	0.2	RANDOM	0	0.474363772907054	1	0	0	0	NONE	1559
749.17822265625	0.2	COHERENT	1	0.434464202491654	1	0	0	0	RIGHT	1563
750.45849609375	0.2	COHERENT	1	0.459338574957656	1	0	0	0	RIGHT	1567
751.828125	0.2	RANDOM	0	0.559146964293177	1	0	0	0	NONE	1571
753.06787109375	0.2	RANDOM	0	0.91291253039617	1	0	0	0	NONE	1575
NaN	0.2	COHERENT	1	0.499876243899052	1	1	0	180	LEFT	NaN
NaN	0.2	COHERENT	1	0.514445355343014	1	1	0	180	LEFT	NaN
757.41796875	0.2	RANDOM	0	0.579384406973077	1	0	0	0	NONE	1579
758.7978515625	0.2	RANDOM	0	NaN	0	0	1	0	NONE	1583
759.83740234375	0.2	RANDOM	0	0.65803895479803	1	0	0	0	NONE	1587
761.3076171875	0.2	RANDOM	0	0.370445171821302	1	0	0	0	NONE	1591
762.33740234375	0.2	RANDOM	0	0.662697013674006	1	0	0	0	NONE	1595
763.9072265625	0.2	COHERENT	1	0.649440622427392	1	0	0	0	RIGHT	1598
765.1572265625	0.2	COHERENT	1	0.758360177339455	1	0	0	180	LEFT	1602
766.77685546875	0.2	COHERENT	1	0.649148739136763	1	0	0	180	LEFT	1605
768.19677734375	0.2	RANDOM	0	0.58508322446869	1	0	0	0	NONE	1609
769.47705078125	0.2	COHERENT	1	NaN	0	0	1	0	RIGHT	1613
770.796875	0.2	RANDOM	0	0.928347934541307	1	0	0	0	NONE	1617
772.37646484375	0.2	COHERENT	1	0.538434720770056	1	0	0	180	LEFT	1620
773.5966796875	0.2	COHERENT	1	0.873207347610332	1	0	0	0	RIGHT	1624
775.16650390625	0.2	COHERENT	1	0.648106471297069	1	0	0	0	RIGHT	1627
776.49609375	0.2	COHERENT	1	0.59290098787551	1	0	0	180	LEFT	1631
777.96630859375	0.2	COHERENT	1	NaN	0	0	1	0	RIGHT	1635
778.986328125	0.2	RANDOM	0	0.818597100847001	1	0	0	0	NONE	1639
780.4560546875	0.2	COHERENT	1	NaN	0	0	1	0	RIGHT	1643
781.9560546875	0.2	COHERENT	1	0.844005737453699	1	0	0	0	RIGHT	1647
783.5859375	0.2	RANDOM	0	0.869933244148342	1	0	0	0	NONE	1650
785.17578125	0.2	COHERENT	1	0.578845313326383	1	0	0	180	LEFT	1653
786.37548828125	0.2	COHERENT	1	0.703681110110665	1	0	0	180	LEFT	1657
787.8251953125	0.2	RANDOM	0	0.579290835286884	1	0	0	0	NONE	1661
789.10546875	0.2	COHERENT	1	NaN	0	0	1	180	LEFT	1665
791.0751953125	0.2	COHERENT	1	NaN	0	0	1	180	LEFT	1666
793.02490234375	0.2	COHERENT	1	0.610814834311896	1	0	0	180	LEFT	1667
794.51513671875	0.2	RANDOM	0	0.61461656134361	1	0	0	0	NONE	1671
795.884765625	0.2	COHERENT	1	0.609391639158275	1	0	0	0	RIGHT	1675
797.28466796875	0.2	RANDOM	0	0.589059115573036	1	0	0	0	NONE	1679
798.6845703125	0.2	RANDOM	0	0.849075813590389	1	0	0	0	NONE	1683
800.2646484375	0.2	COHERENT	1	0.629914324557831	1	0	0	0	RIGHT	1686
801.5341796875	0.2	COHERENT	1	0.592479613445903	1	0	0	180	LEFT	1690
802.9541015625	0.2	RANDOM	0	NaN	0	0	1	0	NONE	1694
805.0341796875	0.2	RANDOM	0	0.579313171753711	1	0	0	0	NONE	1695
806.3740234375	0.2	COHERENT	1	0.529159050131966	1	0	0	180	LEFT	1699
807.8037109375	0.2	RANDOM	0	0.489877354686541	1	0	0	0	NONE	1703
809.0439453125	0.2	RANDOM	0	0.77068869967934	1	0	0	0	NONE	1707
810.65380859375	0.2	RANDOM	0	0.709078687146757	1	0	0	0	NONE	1710
812.09375	0.2	COHERENT	1	0.63444349598376	1	0	0	180	LEFT	1714
813.5234375	0.2	COHERENT	1	NaN	0	0	1	180	LEFT	1718
814.79345703125	0.2	COHERENT	1	NaN	0	0	1	180	LEFT	1722
816.13330078125	0.2	RANDOM	0	0.993612072316864	1	0	0	0	NONE	1726
817.7431640625	0.2	RANDOM	0	NaN	0	0	1	0	NONE	1729
819.26318359375	0.2	RANDOM	0	1.09949326404603	1	0	0	0	NONE	1732
821.03271484375	0.2	RANDOM	0	0.57313804419482	1	0	0	0	NONE	1734
822.3330078125	0.2	COHERENT	1	0.754091195568435	1	0	0	180	LEFT	1738
823.9228515625	0.2	COHERENT	1	0.624870810705033	1	0	0	0	RIGHT	1741
825.17236328125	0.2	RANDOM	0	0.583706211469689	1	0	0	0	NONE	1745
826.62255859375	0.2	RANDOM	0	0.59444552437526	1	0	0	0	NONE	1749
827.9521484375	0.2	RANDOM	0	0.704708285742527	1	0	0	0	NONE	1753
829.55224609375	0.2	COHERENT	1	0.708153836681049	1	0	0	0	RIGHT	1756
831.001953125	0.2	RANDOM	0	1.03986636755963	1	0	0	0	NONE	1760
NaN	0.2	COHERENT	1	0.759644524185205	1	1	0	0	RIGHT	NaN
NaN	0.2	RANDOM	0	0.8534407818006	1	1	0	0	NONE	NaN
NaN	0.2	COHERENT	1	0.634302232922892	1	1	0	0	RIGHT	NaN
837.29150390625	0.2	COHERENT	1	0.618130027214647	1	0	0	180	LEFT	1763
838.63134765625	0.2	COHERENT	1	0.547927115504535	1	0	0	180	LEFT	1767
840.00146484375	0.2	RANDOM	0	0.774853847063241	1	0	0	0	NONE	1771
841.50146484375	0.2	RANDOM	0	0.714580098569968	1	0	0	0	NONE	1775
842.88134765625	0.2	RANDOM	0	0.673377165127931	1	0	0	0	NONE	1779
844.3212890625	0.2	RANDOM	0	0.529211872858468	1	0	0	0	NONE	1783
845.62109375	0.2	RANDOM	0	0.514136568781396	1	0	0	0	NONE	1787
846.95068359375	0.2	RANDOM	0	0.484883645118316	1	0	0	0	NONE	1791
848.291015625	0.2	RANDOM	0	0.429658239982928	1	0	0	0	NONE	1795
849.37060546875	0.2	COHERENT	1	0.648596364347213	1	0	0	0	RIGHT	1799
850.87060546875	0.2	RANDOM	0	0.809334107663744	1	0	0	0	NONE	1803
852.5205078125	0.2	COHERENT	1	0.509062870513844	1	0	0	180	LEFT	1806
853.91015625	0.2	RANDOM	0	0.964894318327424	1	0	0	0	NONE	1810
855.66015625	0.2	COHERENT	1	0.664866971247648	1	0	0	0	RIGHT	1813
857.22998046875	0.2	COHERENT	1	0.559574073760814	1	0	0	180	LEFT	1816
858.4599609375	0.2	COHERENT	1	0.523411032041622	1	0	0	180	LEFT	1820
859.7099609375	0.2	COHERENT	1	0.614049094347138	1	0	0	0	RIGHT	1824
860.94970703125	0.2	RANDOM	0	0.632825007666725	1	0	0	0	NONE	1828
862.39990234375	0.2	COHERENT	1	0.844839430988031	1	0	0	0	RIGHT	1832
863.9697265625	0.2	RANDOM	0	0.684618444850457	1	0	0	0	NONE	1835
865.41943359375	0.2	COHERENT	1	0.649431265258499	1	0	0	180	LEFT	1839
866.67919921875	0.2	COHERENT	1	0.763216547820775	1	0	0	0	RIGHT	1843
868.34912109375	0.2	RANDOM	0	0.839070887494017	1	0	0	0	NONE	1846
870.0390625	0.2	RANDOM	0	0.829659386989988	1	0	0	0	NONE	1849
871.5888671875	0.2	RANDOM	0	0.494834541112141	1	0	0	0	NONE	1852
872.85888671875	0.2	RANDOM	0	0.694574170351189	1	0	0	0	NONE	1856
874.28857421875	0.2	COHERENT	1	0.554238374774286	1	0	0	0	RIGHT	1860
875.45849609375	0.2	COHERENT	1	0.663277761814243	1	0	0	180	LEFT	1864
876.7587890625	0.2	COHERENT	1	0.502812583761624	1	0	0	180	LEFT	1868
877.8583984375	0.2	COHERENT	1	0.539046558856171	1	0	0	180	LEFT	1872
879.1484375	0.2	COHERENT	1	0.688681267069114	1	0	0	0	RIGHT	1876
880.50830078125	0.2	RANDOM	0	1.10333845663445	1	0	0	0	NONE	1880
882.50830078125	0.2	COHERENT	1	0.818951164032114	1	0	0	180	LEFT	1882
884.22802734375	0.2	RANDOM	0	0.570117187971846	1	0	0	0	NONE	1885
885.64794921875	0.2	COHERENT	1	0.62979539796288	1	0	0	180	LEFT	1889
886.91796875	0.2	COHERENT	1	NaN	0	0	1	0	RIGHT	1893
888.4677734375	0.2	COHERENT	1	NaN	0	0	1	0	RIGHT	1896
890.017578125	0.2	RANDOM	0	NaN	0	0	1	0	NONE	1899
892.03759765625	0.2	COHERENT	1	0.624133707297915	1	0	0	0	RIGHT	1900
893.4072265625	0.2	RANDOM	0	0.769894849572665	1	0	0	0	NONE	1904
895.0771484375	0.2	RANDOM	0	0.860118479864468	1	0	0	0	NONE	1907
896.6572265625	0.2	RANDOM	0	0.623557486821483	1	0	0	0	NONE	1910
897.98681640625	0.2	COHERENT	1	0.698344203747183	1	0	0	0	RIGHT	1914
899.296875	0.2	RANDOM	0	NaN	0	0	1	0	NONE	1918
901.376953125	0.2	RANDOM	0	NaN	0	0	1	0	NONE	1919
903.4765625	0.2	RANDOM	0	0.569256026619769	1	0	0	0	NONE	1920
904.66650390625	0.2	COHERENT	1	0.568567218277167	1	0	0	0	RIGHT	1924
905.92626953125	0.2	COHERENT	1	0.538353222850674	1	0	0	180	LEFT	1928
907.1962890625	0.2	RANDOM	0	0.494074497550173	1	0	0	0	NONE	1932
908.43603515625	0.2	RANDOM	0	0.559047959412965	1	0	0	0	NONE	1936
909.59619140625	0.2	COHERENT	1	0.617622929047684	1	0	0	0	RIGHT	1940
911.06591796875	0.2	COHERENT	1	0.700407308491776	1	0	0	180	LEFT	1944
912.3857421875	0.2	COHERENT	1	NaN	0	0	1	0	RIGHT	1948
913.6357421875	0.2	RANDOM	0	NaN	0	0	1	0	NONE	1952
915.70556640625	0.2	COHERENT	1	0.855058968272715	1	0	0	180	LEFT	1953
917.33544921875	0.2	RANDOM	0	0.524877089063011	1	0	0	0	NONE	1956
918.6455078125	0.2	COHERENT	1	NaN	0	0	1	180	LEFT	1960
919.775390625	0.2	RANDOM	0	0.703573351750492	1	0	0	0	NONE	1964
921.275390625	0.2	COHERENT	1	0.569304623528296	1	0	0	180	LEFT	1968
922.625	0.2	COHERENT	1	0.724169083431661	1	0	0	0	RIGHT	1972
923.97509765625	0.2	RANDOM	0	0.6330000772723	1	0	0	0	NONE	1976
925.2451171875	0.2	RANDOM	0	0.732866420683422	1	0	0	0	NONE	1980
926.794921875	0.2	RANDOM	0	0.584610838377557	1	0	0	0	NONE	1983
928.23486328125	0.2	COHERENT	1	0.799397398345718	1	0	0	0	RIGHT	1987
929.66455078125	0.2	RANDOM	0	0.923318003675377	1	0	0	0	NONE	1991
931.28466796875	0.2	COHERENT	1	NaN	0	0	1	0	RIGHT	1994
932.71435546875	0.2	COHERENT	1	0.829875507400175	1	0	0	180	LEFT	1998
934.17431640625	0.2	RANDOM	0	0.723652929940727	1	0	0	0	NONE	2002
935.48388671875	0.2	RANDOM	0	NaN	0	0	1	0	NONE	2006
937.00390625	0.2	RANDOM	0	0.898061496519404	1	0	0	0	NONE	2009
938.5537109375	0.2	RANDOM	0	0.478115091965265	1	0	0	0	NONE	2012
939.90380859375	0.2	RANDOM	0	0.564896189760475	1	0	0	0	NONE	2016
941.34375	0.2	COHERENT	1	0.664853690104792	1	0	0	0	RIGHT	2020
942.6435546875	0.2	COHERENT	1	0.513597173289781	1	0	0	180	LEFT	2024
943.8134765625	0.2	RANDOM	0	0.638539219214181	1	0	0	0	NONE	2028
945.04345703125	0.2	RANDOM	0	NaN	0	0	1	0	NONE	2032
946.36328125	0.2	COHERENT	1	NaN	0	0	1	180	LEFT	2036
947.56298828125	0.2	COHERENT	1	0.709873744629476	1	0	0	0	RIGHT	2040
948.89306640625	0.2	RANDOM	0	0.623842729540229	1	0	0	0	NONE	2044
950.36279296875	0.2	RANDOM	0	0.798595398446196	1	0	0	0	NONE	2048
