onset	duration	trial_type	trial_type_id	response_time	bad_epoch	outliers	event_num	response_accuracy
n/a	0.2	SCRAMBLED	0	n/a	1	1	n/a	0
n/a	0.2	FACES	1	0.765799126342245	1	0	n/a	1
n/a	0.2	FACES	1	0.550545311635688	1	0	n/a	1
n/a	0.2	SCRAMBLED	0	0.895328297768174	1	0	n/a	1
n/a	0.2	FACES	1	0.464902166274896	1	0	n/a	1
n/a	0.2	FACES	1	0.671035458235565	1	0	n/a	1
203.0732421875	0.2	SCRAMBLED	0	0.60656305765724	0	0	5.0	1
204.62353515625	0.2	SCRAMBLED	0	0.71063559925733	0	0	11.0	1
206.2431640625	0.2	FACES	1	0.46234645188224	0	0	17.0	1
207.52294921875	0.2	SCRAMBLED	0	0.516307130041696	0	0	25.0	1
208.7431640625	0.2	FACES	1	0.420200255481177	0	0	33.0	1
210.0927734375	0.2	FACES	1	0.487014966640345	0	0	41.0	1
211.29296875	0.2	SCRAMBLED	0	0.525866232333101	0	0	49.0	1
212.6728515625	0.2	FACES	1	0.433590665530119	0	0	57.0	1
213.892578125	0.2	FACES	1	0.4265193626984	0	0	65.0	1
215.142578125	0.2	FACES	1	0.478492095305683	0	0	73.0	1
216.38232421875	0.2	FACES	1	0.42524527855403	0	0	81.0	1
217.5625	0.2	FACES	1	0.410017543181766	0	0	89.0	1
218.93212890625	0.2	FACES	1	0.57194485428181	0	0	97.0	1
220.33203125	0.2	FACES	1	0.685708705909747	0	0	105.0	1
221.73193359375	0.2	FACES	1	0.681453910813161	0	0	113.0	1
223.27197265625	0.2	FACES	1	0.490287259037814	0	0	119.0	1
224.45166015625	0.2	SCRAMBLED	0	0.513221981014794	0	0	127.0	1
225.671875	0.2	SCRAMBLED	0	0.555016528985561	0	0	135.0	1
226.99169921875	0.2	SCRAMBLED	0	0.445827125405685	0	0	143.0	1
228.25146484375	0.2	FACES	1	0.493722547274956	0	0	151.0	1
229.55126953125	0.2	SCRAMBLED	0	0.499493505521059	0	0	159.0	1
230.89111328125	0.2	SCRAMBLED	0	0.553283038048903	0	0	167.0	1
232.22119140625	0.2	FACES	1	0.415985001968238	0	0	175.0	1
233.3212890625	0.2	SCRAMBLED	0	0.87996473252997	0	0	183.0	1
235.03125	0.2	SCRAMBLED	0	0.606769217209603	0	0	188.0	1
236.49072265625	0.2	SCRAMBLED	0	0.81754125002135	0	0	196.0	1
238.2109375	0.2	SCRAMBLED	0	0.409432569224919	0	0	201.0	1
239.6005859375	0.2	FACES	1	0.530245689061758	0	0	209.0	1
240.8505859375	0.2	FACES	1	0.355089152687015	0	0	217.0	1
242.00048828125	0.2	FACES	1	0.357010088838706	0	0	225.0	1
243.23046875	0.2	FACES	1	0.346748897061389	0	0	233.0	1
244.50048828125	0.2	SCRAMBLED	0	0.646695048065794	0	0	241.0	1
245.97021484375	0.2	FACES	1	0.526553531455647	0	0	249.0	1
247.419921875	0.2	SCRAMBLED	0	n/a	0	1	257.0	0
248.6201171875	0.2	SCRAMBLED	0	0.630986474967358	0	0	265.0	1
249.90966796875	0.2	SCRAMBLED	0	0.317958096788061	0	0	273.0	1
251.1396484375	0.2	FACES	1	0.521806428555919	0	0	281.0	1
252.33984375	0.2	SCRAMBLED	0	0.530699662658662	0	0	289.0	1
253.58984375	0.2	SCRAMBLED	0	0.43745668536485	0	0	297.0	1
254.689453125	0.2	FACES	1	0.530252329632731	0	0	305.0	1
255.90966796875	0.2	SCRAMBLED	0	0.540178172563174	0	0	313.0	1
257.2294921875	0.2	FACES	1	0.428730974763312	0	0	321.0	1
258.55908203125	0.2	FACES	1	0.47372476884766	0	0	329.0	1
259.72900390625	0.2	FACES	1	0.496547204802482	0	0	337.0	1
261.09912109375	0.2	FACES	1	0.356489105840865	0	0	345.0	1
262.26904296875	0.2	SCRAMBLED	0	0.548381390946361	0	0	353.0	1
263.62890625	0.2	SCRAMBLED	0	0.58602467636274	0	0	361.0	1
265.11865234375	0.2	FACES	1	0.46395890331587	0	0	369.0	1
266.44873046875	0.2	FACES	1	0.492741251953248	0	0	377.0	1
267.7685546875	0.2	FACES	1	0.385699469478823	0	0	385.0	1
268.96826171875	0.2	FACES	1	0.431458438476056	0	0	393.0	1
270.25830078125	0.2	FACES	1	0.321261479133227	0	0	401.0	1
271.318359375	0.2	SCRAMBLED	0	0.500152129450271	0	0	409.0	1
272.71826171875	0.2	SCRAMBLED	0	0.517876417761727	0	0	417.0	1
273.9580078125	0.2	SCRAMBLED	0	0.515889981430519	0	0	425.0	1
275.2080078125	0.2	FACES	1	0.476556670635091	0	0	433.0	1
276.52783203125	0.2	SCRAMBLED	0	0.404482023369837	0	0	441.0	1
277.8076171875	0.2	SCRAMBLED	0	n/a	0	1	449.0	0
278.77783203125	0.2	FACES	1	0.533182330767886	0	0	459.0	1
280.177734375	0.2	FACES	1	0.33200290494824	0	0	467.0	1
281.16748046875	0.2	SCRAMBLED	0	0.517959424902529	0	0	477.0	1
282.54736328125	0.2	FACES	1	0.492768417926072	0	0	485.0	1
283.697265625	0.2	FACES	1	0.52256284998839	0	0	493.0	1
285.1474609375	0.2	SCRAMBLED	0	0.573515047534329	0	0	501.0	1
286.4169921875	0.2	SCRAMBLED	0	0.420225610389025	0	0	509.0	1
287.51708984375	0.2	FACES	1	0.33701532885334	0	0	517.0	1
288.56689453125	0.2	SCRAMBLED	0	0.626960779578894	0	0	525.0	1
290.13671875	0.2	SCRAMBLED	0	0.504667416044867	0	0	531.0	1
291.36669921875	0.2	SCRAMBLED	0	0.502543036938278	0	0	539.0	1
292.81640625	0.2	SCRAMBLED	0	0.470745265272853	0	0	547.0	1
294.056640625	0.2	SCRAMBLED	0	0.44522404079953	0	0	555.0	1
295.38623046875	0.2	SCRAMBLED	0	0.443223115948967	0	0	563.0	1
296.736328125	0.2	SCRAMBLED	0	0.31669246427964	0	0	571.0	1
297.74609375	0.2	FACES	1	0.527745815836624	0	0	579.0	1
299.1962890625	0.2	SCRAMBLED	0	n/a	0	1	587.0	0
300.39599609375	0.2	FACES	1	n/a	0	1	595.0	0
302.2158203125	0.2	FACES	1	0.435194967171356	0	0	597.0	1
303.42578125	0.2	FACES	1	0.389020358784364	0	0	605.0	1
304.4755859375	0.2	FACES	1	0.321957229891723	0	0	613.0	1
305.58544921875	0.2	FACES	1	0.376885318542008	0	0	621.0	1
306.8955078125	0.2	SCRAMBLED	0	0.481667495731926	0	0	629.0	1
308.1455078125	0.2	SCRAMBLED	0	0.34847031423169	0	0	637.0	1
309.2353515625	0.2	SCRAMBLED	0	0.432511874548709	0	0	645.0	1
310.51513671875	0.2	FACES	1	0.652153597619872	0	0	653.0	1
312.03515625	0.2	SCRAMBLED	0	0.499972834026721	0	0	659.0	1
313.5048828125	0.2	SCRAMBLED	0	0.488220230319257	0	0	667.0	1
314.68505859375	0.2	FACES	1	0.501635089744013	0	0	675.0	1
316.02490234375	0.2	FACES	1	0.42844271360309	0	0	683.0	1
317.3046875	0.2	FACES	1	0.353234320403772	0	0	691.0	1
318.474609375	0.2	SCRAMBLED	0	0.506161242728467	0	0	699.0	1
319.90478515625	0.2	FACES	1	0.498982785224598	0	0	707.0	1
321.12451171875	0.2	FACES	1	0.452057490443622	0	0	715.0	1
322.41455078125	0.2	SCRAMBLED	0	0.532645953718657	0	0	723.0	1
323.89453125	0.2	FACES	1	0.413468225470297	0	0	731.0	1
325.2841796875	0.2	SCRAMBLED	0	0.596196522272294	0	0	739.0	1
326.63427734375	0.2	SCRAMBLED	0	0.528036491749845	0	0	747.0	1
328.11376953125	0.2	FACES	1	0.543674433317392	0	0	755.0	1
329.35400390625	0.2	FACES	1	0.507714532709088	0	0	763.0	1
330.73388671875	0.2	FACES	1	0.396519374772197	0	0	771.0	1
331.95361328125	0.2	SCRAMBLED	0	0.528476882360792	0	0	779.0	1
333.15380859375	0.2	SCRAMBLED	0	0.433231470994997	0	0	787.0	1
334.4833984375	0.2	SCRAMBLED	0	n/a	0	1	795.0	0
335.7333984375	0.2	FACES	1	n/a	0	1	803.0	0
337.693359375	0.2	SCRAMBLED	0	0.695409674950042	0	0	805.0	1
339.30322265625	0.2	FACES	1	0.779450329734573	0	0	811.0	1
340.9931640625	0.2	SCRAMBLED	0	1.1331902390848	0	0	817.0	1
342.82275390625	0.2	FACES	1	n/a	0	1	821.0	0
344.74267578125	0.2	FACES	1	1.01144351530093	0	0	823.0	1
346.5126953125	0.2	SCRAMBLED	0	0.895181601512832	0	0	827.0	1
348.16259765625	0.2	SCRAMBLED	0	0.662340837581269	0	0	833.0	1
349.50244140625	0.2	FACES	1	0.9001632373147	0	0	841.0	1
n/a	0.2	FACES	1	0.639960603301915	1	0	n/a	1
352.501953125	0.2	FACES	1	0.581963967053071	0	0	848.0	1
354.0322265625	0.2	FACES	1	0.612671175815649	0	0	854.0	1
355.421875	0.2	SCRAMBLED	0	0.625408998819239	0	0	862.0	1
356.77197265625	0.2	SCRAMBLED	0	1.07217395398948	0	0	870.0	1
358.54150390625	0.2	FACES	1	0.706966079962513	0	0	874.0	1
360.0615234375	0.2	SCRAMBLED	0	0.628746489552213	0	0	880.0	1
361.44140625	0.2	SCRAMBLED	0	0.684618746694923	0	0	888.0	1
362.87158203125	0.2	SCRAMBLED	0	0.752420186370728	0	0	896.0	1
364.46142578125	0.2	SCRAMBLED	0	0.584420374721503	0	0	902.0	1
365.73095703125	0.2	FACES	1	0.715015357829998	0	0	910.0	1
367.18115234375	0.2	SCRAMBLED	0	0.702891183977954	0	0	918.0	1
368.55078125	0.2	FACES	1	0.831555571922308	0	0	926.0	1
370.23095703125	0.2	SCRAMBLED	0	0.696484240113477	0	0	932.0	1
371.66064453125	0.2	SCRAMBLED	0	n/a	0	1	940.0	0
373.720703125	0.2	SCRAMBLED	0	0.618733413663904	0	0	942.0	1
375.0302734375	0.2	SCRAMBLED	0	0.872630221601867	0	0	950.0	1
376.67041015625	0.2	SCRAMBLED	0	0.70766092518852	0	0	956.0	1
378.240234375	0.2	SCRAMBLED	0	0.669416064386951	0	0	962.0	1
379.7900390625	0.2	FACES	1	0.637200540421873	0	0	968.0	1
381.3701171875	0.2	FACES	1	n/a	0	1	974.0	0
383.33984375	0.2	FACES	1	n/a	0	1	976.0	0
385.40966796875	0.2	FACES	1	1.07647432755175	0	0	978.0	1
387.37939453125	0.2	SCRAMBLED	0	0.701357212022685	0	0	982.0	1
388.8095703125	0.2	SCRAMBLED	0	0.423018574281741	0	0	990.0	1
389.8994140625	0.2	FACES	1	n/a	0	1	998.0	0
391.92919921875	0.2	FACES	1	0.618675157743837	0	0	1000.0	1
393.34912109375	0.2	FACES	1	1.0234514791573	0	0	1008.0	1
395.3291015625	0.2	SCRAMBLED	0	0.63821503859981	0	0	1012.0	1
396.93896484375	0.2	SCRAMBLED	0	0.467981882106869	0	0	1018.0	1
398.21875	0.2	SCRAMBLED	0	0.409932423132432	0	0	1026.0	1
399.48876953125	0.2	SCRAMBLED	0	0.597698498747832	0	0	1034.0	1
400.9384765625	0.2	FACES	1	0.711491629258035	0	0	1042.0	1
434.26611328125	0.2	FACES	1	0.64105086436075	0	0	1046.0	1
435.81591796875	0.2	SCRAMBLED	0	0.508109043009426	0	0	1052.0	1
437.185546875	0.2	FACES	1	0.523913300701679	0	0	1060.0	1
438.61572265625	0.2	FACES	1	0.521692029624319	0	0	1068.0	1
439.9052734375	0.2	SCRAMBLED	0	0.537453425448348	0	0	1076.0	1
441.21533203125	0.2	FACES	1	0.548396181309272	0	0	1084.0	1
442.60546875	0.2	FACES	1	0.587954667838403	0	0	1092.0	1
443.9853515625	0.2	FACES	1	0.762970544840755	0	0	1100.0	1
445.47509765625	0.2	FACES	1	0.87974197154972	0	0	1108.0	1
447.2548828125	0.2	SCRAMBLED	0	0.638603210173187	0	0	1113.0	1
448.705078125	0.2	FACES	1	0.692428360310259	0	0	1121.0	1
450.3046875	0.2	SCRAMBLED	0	0.688033811373771	0	0	1127.0	1
451.7744140625	0.2	SCRAMBLED	0	0.814983422719251	0	0	1135.0	1
453.4443359375	0.2	FACES	1	0.581841418329532	0	0	1141.0	1
454.91455078125	0.2	SCRAMBLED	0	0.573642425764774	0	0	1149.0	1
n/a	0.2	FACES	1	0.530446717263658	1	0	n/a	1
457.6943359375	0.2	FACES	1	0.63132544594464	0	0	1157.0	1
459.154296875	0.2	FACES	1	0.516150171084973	0	0	1165.0	1
460.35400390625	0.2	FACES	1	0.706741809760842	0	0	1173.0	1
461.86376953125	0.2	SCRAMBLED	0	0.617686014473747	0	0	1179.0	1
463.40380859375	0.2	FACES	1	0.73399682701438	0	0	1185.0	1
464.9736328125	0.2	FACES	1	0.657395724921116	0	0	1191.0	1
466.50341796875	0.2	SCRAMBLED	0	0.654032275590907	0	0	1197.0	1
467.8232421875	0.2	FACES	1	0.701913812629755	0	0	1205.0	1
469.4033203125	0.2	SCRAMBLED	0	n/a	0	1	1211.0	0
471.462890625	0.2	FACES	1	0.6641820868781	0	0	1213.0	1
472.86279296875	0.2	SCRAMBLED	0	0.661372823401507	0	0	1221.0	1
474.1728515625	0.2	FACES	1	0.822020315318241	0	0	1229.0	1
475.86279296875	0.2	FACES	1	0.81382313381846	0	0	1235.0	1
477.41259765625	0.2	FACES	1	0.83663500522789	0	0	1241.0	1
479.20263671875	0.2	SCRAMBLED	0	0.679315948720159	0	0	1246.0	1
480.63232421875	0.2	FACES	1	0.752331142346975	0	0	1254.0	1
482.18212890625	0.2	SCRAMBLED	0	0.683037988897013	0	0	1260.0	1
483.80224609375	0.2	SCRAMBLED	0	0.573937025651958	0	0	1266.0	1
485.27197265625	0.2	FACES	1	0.70382991927454	0	0	1274.0	1
486.89208984375	0.2	FACES	1	0.923527785357692	0	0	1280.0	1
488.591796875	0.2	FACES	1	0.807334692034146	0	0	1285.0	1
490.29150390625	0.2	SCRAMBLED	0	0.944142533221111	0	0	1291.0	1
492.111328125	0.2	SCRAMBLED	0	0.854891746615067	0	0	1296.0	1
493.8115234375	0.2	SCRAMBLED	0	0.8116598168167	0	0	1302.0	1
495.43115234375	0.2	FACES	1	0.673399803439224	0	0	1308.0	1
497.06103515625	0.2	SCRAMBLED	0	0.658223381572498	0	0	1314.0	1
498.630859375	0.2	SCRAMBLED	0	0.867975181166912	0	0	1320.0	1
500.28076171875	0.2	FACES	1	0.657895578828175	0	0	1326.0	1
501.65087890625	0.2	FACES	1	1.06959379022055	0	0	1334.0	1
503.45068359375	0.2	FACES	1	n/a	0	1	1338.0	0
505.48046875	0.2	SCRAMBLED	0	1.13187450044779	0	0	1340.0	1
507.59033203125	0.2	SCRAMBLED	0	0.678856240084315	0	0	1344.0	1
508.97021484375	0.2	SCRAMBLED	0	0.613670883630675	0	0	1352.0	1
510.490234375	0.2	FACES	1	0.682565300962779	0	0	1358.0	1
511.990234375	0.2	FACES	1	1.00294539518654	0	0	1365.0	1
513.83984375	0.2	FACES	1	0.852111762021195	0	0	1369.0	1
515.40966796875	0.2	FACES	1	1.09146149313847	0	0	1375.0	1
517.35986328125	0.2	FACES	1	0.880655351938003	0	0	1379.0	1
519.029296875	0.2	SCRAMBLED	0	0.764377742254055	0	0	1385.0	1
520.44921875	0.2	FACES	1	0.93192931534486	0	0	1393.0	1
522.17919921875	0.2	SCRAMBLED	0	0.699979293491651	0	0	1398.0	1
523.59912109375	0.2	FACES	1	0.752729576621277	0	0	1406.0	1
525.01904296875	0.2	SCRAMBLED	0	0.677613547731198	0	0	1414.0	1
526.548828125	0.2	SCRAMBLED	0	0.627516474653476	0	0	1420.0	1
527.888671875	0.2	SCRAMBLED	0	0.918199330630614	0	0	1428.0	1
529.71875	0.2	FACES	1	0.772085332547704	0	0	1433.0	1
531.15869140625	0.2	SCRAMBLED	0	n/a	0	1	1441.0	0
533.25830078125	0.2	FACES	1	0.572592008133142	0	0	1443.0	1
534.75830078125	0.2	FACES	1	0.678219952622385	0	0	1450.0	1
536.17822265625	0.2	SCRAMBLED	0	0.672172505137496	0	0	1458.0	1
537.60791015625	0.2	SCRAMBLED	0	0.737972718118726	0	0	1466.0	1
539.10791015625	0.2	FACES	1	0.672844410208654	0	0	1473.0	1
540.52783203125	0.2	FACES	1	0.751648974574891	0	0	1481.0	1
542.0478515625	0.2	FACES	1	n/a	0	1	1487.0	0
543.86767578125	0.2	SCRAMBLED	0	n/a	0	1	1489.0	0
545.8173828125	0.2	FACES	1	0.86064549974526	0	0	1491.0	1
547.58740234375	0.2	SCRAMBLED	0	0.649785932131181	0	0	1496.0	1
549.16748046875	0.2	FACES	1	0.458578229551676	0	0	1502.0	1
550.3173828125	0.2	SCRAMBLED	0	0.712388710062896	0	0	1510.0	1
551.68701171875	0.2	SCRAMBLED	0	0.63707406772437	0	0	1518.0	1
552.98681640625	0.2	FACES	1	0.801644024330926	0	0	1526.0	1
554.73681640625	0.2	SCRAMBLED	0	0.618831211168072	0	0	1531.0	1
556.126953125	0.2	FACES	1	0.712608754446137	0	0	1539.0	1
557.5263671875	0.2	FACES	1	0.646391392853729	0	0	1547.0	1
559.056640625	0.2	SCRAMBLED	0	0.57436564434056	0	0	1553.0	1
560.40625	0.2	SCRAMBLED	0	0.963681508544596	0	0	1561.0	1
562.326171875	0.2	FACES	1	0.663876620601059	0	0	1566.0	1
563.71630859375	0.2	SCRAMBLED	0	0.70776777801666	0	0	1574.0	1
565.2158203125	0.2	FACES	1	0.993256198067684	0	0	1582.0	1
567.03564453125	0.2	SCRAMBLED	0	0.668205971201587	0	0	1586.0	1
568.48583984375	0.2	FACES	1	0.698101521053104	0	0	1594.0	1
570.0556640625	0.2	FACES	1	0.528878636920126	0	0	1600.0	1
571.46533203125	0.2	SCRAMBLED	0	0.594689716290759	0	0	1608.0	1
572.91552734375	0.2	SCRAMBLED	0	0.688540909541189	0	0	1616.0	1
574.55517578125	0.2	FACES	1	0.587302080792597	0	0	1622.0	1
575.78515625	0.2	SCRAMBLED	0	0.607129015432747	0	0	1630.0	1
577.294921875	0.2	FACES	1	0.589913032664299	0	0	1636.0	1
578.84521484375	0.2	SCRAMBLED	0	0.468803501874845	0	0	1642.0	1
580.205078125	0.2	SCRAMBLED	0	0.669210508523065	0	0	1650.0	1
581.57470703125	0.2	SCRAMBLED	0	0.643408568992982	0	0	1658.0	1
583.0947265625	0.2	FACES	1	0.558297876707456	0	0	1664.0	1
584.4443359375	0.2	SCRAMBLED	0	0.60383106628251	0	0	1672.0	1
585.814453125	0.2	SCRAMBLED	0	0.545907778161109	0	0	1680.0	1
587.314453125	0.2	FACES	1	0.513674143547632	0	0	1687.0	1
588.58447265625	0.2	FACES	1	0.701251868415511	0	0	1695.0	1
590.2041015625	0.2	SCRAMBLED	0	0.867192801138117	0	0	1701.0	1
591.9541015625	0.2	SCRAMBLED	0	0.603063778460637	0	0	1706.0	1
593.333984375	0.2	FACES	1	0.738879156092025	0	0	1714.0	1
594.8837890625	0.2	FACES	1	0.512788532819741	0	0	1720.0	1
596.2236328125	0.2	FACES	1	0.388583892147835	0	0	1728.0	1
597.5537109375	0.2	SCRAMBLED	0	0.514320693710033	0	0	1736.0	1
598.9736328125	0.2	FACES	1	0.493050944047809	0	0	1744.0	1
600.37353515625	0.2	SCRAMBLED	0	0.477021812465409	0	0	1752.0	1
601.54345703125	0.2	SCRAMBLED	0	0.452853151615273	0	0	1760.0	1
602.72314453125	0.2	FACES	1	0.477782459715854	0	0	1768.0	1
604.11328125	0.2	SCRAMBLED	0	0.639566998534065	0	0	1776.0	1
605.51318359375	0.2	FACES	1	0.532868714699362	0	0	1784.0	1
606.78271484375	0.2	FACES	1	0.436091746132206	0	0	1792.0	1
608.04296875	0.2	SCRAMBLED	0	0.514930720731172	0	0	1800.0	1
609.3125	0.2	FACES	1	0.4218380618222	0	0	1808.0	1
610.58251953125	0.2	SCRAMBLED	0	0.531492003544827	0	0	1816.0	1
612.05224609375	0.2	SCRAMBLED	0	0.692428963998736	0	0	1824.0	1
613.55224609375	0.2	SCRAMBLED	0	0.549326766814374	0	0	1831.0	1
614.7724609375	0.2	SCRAMBLED	0	0.597161819854591	0	0	1839.0	1
616.09228515625	0.2	FACES	1	0.456764448072136	0	0	1847.0	1
617.39208984375	0.2	SCRAMBLED	0	0.664417525312729	0	0	1855.0	1
618.841796875	0.2	SCRAMBLED	0	0.552748170220639	0	0	1863.0	1
620.32177734375	0.2	FACES	1	0.577404611212387	0	0	1871.0	1
621.591796875	0.2	FACES	1	0.58805065427714	0	0	1879.0	1
622.87158203125	0.2	FACES	1	0.40110167076773	0	0	1887.0	1
624.16162109375	0.2	FACES	1	0.408871139111397	0	0	1895.0	1
625.33154296875	0.2	SCRAMBLED	0	0.637806039780571	0	0	1903.0	1
626.7314453125	0.2	SCRAMBLED	0	0.927472586514341	0	0	1911.0	1
628.51123046875	0.2	SCRAMBLED	0	1.00936290359596	0	0	1916.0	1
630.2509765625	0.2	SCRAMBLED	0	0.578160127112824	0	0	1920.0	1
631.73095703125	0.2	SCRAMBLED	0	0.488930469597108	0	0	1928.0	1
633.03076171875	0.2	FACES	1	0.503180531777161	0	0	1936.0	1
634.3505859375	0.2	SCRAMBLED	0	0.597444044132317	0	0	1944.0	1
635.90087890625	0.2	SCRAMBLED	0	0.429403483522947	0	0	1950.0	1
637.140625	0.2	SCRAMBLED	0	0.459590916664638	0	0	1958.0	1
638.30029296875	0.2	FACES	1	0.53210474716343	0	0	1966.0	1
639.55029296875	0.2	SCRAMBLED	0	0.62774044301068	0	0	1974.0	1
640.8701171875	0.2	SCRAMBLED	0	0.532802308987357	0	0	1982.0	1
n/a	0.2	FACES	1	0.50361096153074	1	0	n/a	1
643.39013671875	0.2	SCRAMBLED	0	0.542052322872223	0	0	1990.0	1
644.759765625	0.2	SCRAMBLED	0	0.428366045189705	0	0	1998.0	1
645.9599609375	0.2	FACES	1	0.548132369524865	0	0	2006.0	1
647.3896484375	0.2	FACES	1	0.428882802369117	0	0	2014.0	1
648.77978515625	0.2	FACES	1	0.353863061761786	0	0	2022.0	1
649.95947265625	0.2	FACES	1	0.398529354947186	0	0	2030.0	1
651.29931640625	0.2	SCRAMBLED	0	0.57452049038784	0	0	2038.0	1
652.69921875	0.2	SCRAMBLED	0	0.493299663624839	0	0	2046.0	1
653.96923828125	0.2	SCRAMBLED	0	0.476231584488232	0	0	2054.0	1
655.26904296875	0.2	SCRAMBLED	0	0.455024920252981	0	0	2062.0	1
674.2978515625	0.2	FACES	1	0.54234360247392	0	0	2066.0	1
675.56787109375	0.2	SCRAMBLED	0	0.59832995670331	0	0	2074.0	1
676.83740234375	0.2	FACES	1	0.497248086911895	0	0	2082.0	1
678.017578125	0.2	FACES	1	0.346849411162566	0	0	2090.0	1
679.21728515625	0.2	SCRAMBLED	0	0.579854981997869	0	0	2098.0	1
680.6171875	0.2	SCRAMBLED	0	0.607786130140539	0	0	2106.0	1
681.93701171875	0.2	FACES	1	0.4923874906126	0	0	2114.0	1
683.0869140625	0.2	FACES	1	0.402117980010644	0	0	2122.0	1
684.1767578125	0.2	SCRAMBLED	0	0.513304082623108	0	0	2130.0	1
685.63671875	0.2	FACES	1	0.442930628970771	0	0	2138.0	1
686.88671875	0.2	SCRAMBLED	0	0.539858217767232	0	0	2146.0	1
688.146484375	0.2	SCRAMBLED	0	0.457937716271317	0	0	2154.0	1
689.3564453125	0.2	FACES	1	0.561581035494328	0	0	2162.0	1
690.7763671875	0.2	FACES	1	0.472495357636944	0	0	2170.0	1
692.146484375	0.2	FACES	1	0.468308779317795	0	0	2178.0	1
693.42626953125	0.2	FACES	1	0.438295812093656	0	0	2186.0	1
694.72607421875	0.2	SCRAMBLED	0	0.53886696158861	0	0	2194.0	1
696.0361328125	0.2	SCRAMBLED	0	0.747727717261114	0	0	2202.0	1
697.5458984375	0.2	SCRAMBLED	0	0.397467769082141	0	0	2208.0	1
n/a	0.2	SCRAMBLED	0	0.392488849877282	1	0	n/a	1
n/a	0.2	SCRAMBLED	0	0.347287990708082	1	0	n/a	1
700.81591796875	0.2	FACES	1	0.447239454169448	0	0	2216.0	1
702.10546875	0.2	SCRAMBLED	0	0.53383431412567	0	0	2224.0	1
703.60546875	0.2	SCRAMBLED	0	0.528800459286231	0	0	2231.0	1
704.95556640625	0.2	FACES	1	0.579703456236075	0	0	2239.0	1
706.33544921875	0.2	FACES	1	0.403361276052237	0	0	2247.0	1
707.455078125	0.2	SCRAMBLED	0	0.597316967745883	0	0	2255.0	1
708.705078125	0.2	FACES	1	0.541220138558401	0	0	2263.0	1
709.9052734375	0.2	FACES	1	0.502020846564392	0	0	2271.0	1
711.1748046875	0.2	SCRAMBLED	0	0.487794931916142	0	0	2279.0	1
712.57470703125	0.2	SCRAMBLED	0	0.478605286860329	0	0	2287.0	1
714.0146484375	0.2	SCRAMBLED	0	0.419498467839276	0	0	2295.0	1
715.36474609375	0.2	SCRAMBLED	0	0.392277860818467	0	0	2303.0	1
716.6943359375	0.2	SCRAMBLED	0	0.323083108559786	0	0	2311.0	1
717.83447265625	0.2	FACES	1	0.544038155514954	0	0	2319.0	1
719.26416015625	0.2	SCRAMBLED	0	0.633780344392108	0	0	2327.0	1
720.60400390625	0.2	FACES	1	0.612570963558937	0	0	2335.0	1
722.154296875	0.2	SCRAMBLED	0	0.493453000451609	0	0	2341.0	1
723.3837890625	0.2	SCRAMBLED	0	0.47230308291546	0	0	2349.0	1
724.65380859375	0.2	FACES	1	0.453087684516959	0	0	2357.0	1
725.95361328125	0.2	SCRAMBLED	0	0.600978337249217	0	0	2365.0	1
727.20361328125	0.2	FACES	1	0.372824911076805	0	0	2373.0	1
728.4736328125	0.2	SCRAMBLED	0	0.483718526710618	0	0	2381.0	1
729.6435546875	0.2	FACES	1	0.367374813158222	0	0	2389.0	1
730.79345703125	0.2	SCRAMBLED	0	0.433454835664179	0	0	2397.0	1
732.04345703125	0.2	SCRAMBLED	0	0.557068465497196	0	0	2405.0	1
733.373046875	0.2	FACES	1	0.459031297615638	0	0	2413.0	1
734.71337890625	0.2	SCRAMBLED	0	0.532819212259255	0	0	2421.0	1
736.212890625	0.2	FACES	1	0.343631752555211	0	0	2428.0	1
737.3330078125	0.2	FACES	1	0.368547779513847	0	0	2436.0	1
738.56298828125	0.2	FACES	1	0.363321951796479	0	0	2444.0	1
739.8330078125	0.2	SCRAMBLED	0	0.45909830701612	0	0	2452.0	1
741.1025390625	0.2	FACES	1	0.624002405094416	0	0	2460.0	1
742.53271484375	0.2	FACES	1	0.562843347717262	0	0	2468.0	1
744.05224609375	0.2	SCRAMBLED	0	0.480305574940303	0	0	2474.0	1
745.2724609375	0.2	FACES	1	0.456488864365383	0	0	2482.0	1
746.572265625	0.2	FACES	1	0.353290463415306	0	0	2490.0	1
747.59228515625	0.2	SCRAMBLED	0	0.547097647789087	0	0	2498.0	1
748.90185546875	0.2	SCRAMBLED	0	0.467866577642781	0	0	2506.0	1
750.22216796875	0.2	FACES	1	0.44354790025136	0	0	2514.0	1
751.57177734375	0.2	SCRAMBLED	0	0.640184873503131	0	0	2522.0	1
753.01171875	0.2	FACES	1	0.567470014802439	0	0	2530.0	1
754.51171875	0.2	SCRAMBLED	0	n/a	0	1	2537.0	0
755.841796875	0.2	SCRAMBLED	0	0.52808720156645	0	0	2545.0	1
757.28125	0.2	FACES	1	0.58285018146853	0	0	2553.0	1
758.80126953125	0.2	FACES	1	0.508774609353168	0	0	2559.0	1
760.06103515625	0.2	FACES	1	0.492579161646063	0	0	2567.0	1
761.43115234375	0.2	FACES	1	0.55831930764225	0	0	2575.0	1
762.93115234375	0.2	SCRAMBLED	0	0.61321389159184	0	0	2582.0	1
764.2509765625	0.2	SCRAMBLED	0	0.477920704335247	0	0	2590.0	1
765.6708984375	0.2	FACES	1	0.518648535090051	0	0	2598.0	1
767.07080078125	0.2	FACES	1	0.508569657177304	0	0	2606.0	1
768.45068359375	0.2	FACES	1	0.538511389182986	0	0	2614.0	1
769.8203125	0.2	SCRAMBLED	0	0.563325996508411	0	0	2622.0	1
771.240234375	0.2	FACES	1	0.423455946450304	0	0	2630.0	1
772.46044921875	0.2	SCRAMBLED	0	0.582979370763496	0	0	2638.0	1
773.93994140625	0.2	SCRAMBLED	0	0.399787743195702	0	0	2645.0	1
775.26025390625	0.2	FACES	1	0.493569512292197	0	0	2653.0	1
776.56005859375	0.2	SCRAMBLED	0	0.569451923471661	0	0	2661.0	1
777.85986328125	0.2	FACES	1	0.447295899024539	0	0	2669.0	1
779.25	0.2	SCRAMBLED	0	0.553081708003447	0	0	2677.0	1
780.52978515625	0.2	SCRAMBLED	0	0.602964773580879	0	0	2685.0	1
781.87939453125	0.2	SCRAMBLED	0	0.592720786919926	0	0	2693.0	1
783.279296875	0.2	SCRAMBLED	0	0.450167946083184	0	0	2701.0	1
784.46923828125	0.2	FACES	1	0.486474363773141	0	0	2709.0	1
785.6494140625	0.2	FACES	1	0.422268793420244	0	0	2717.0	1
786.96923828125	0.2	FACES	1	0.448050509392033	0	0	2725.0	1
788.2890625	0.2	FACES	1	0.328997744620665	0	0	2733.0	1
789.548828125	0.2	SCRAMBLED	0	0.413771276993884	0	0	2741.0	1
790.90869140625	0.2	FACES	1	0.338452106992918	0	0	2749.0	1
792.0087890625	0.2	SCRAMBLED	0	0.52819858205703	0	0	2757.0	1
793.30859375	0.2	FACES	1	0.378047418508231	0	0	2765.0	1
794.3388671875	0.2	FACES	1	0.502048918069704	0	0	2773.0	1
795.6083984375	0.2	FACES	1	0.41201152561689	0	0	2781.0	1
796.75830078125	0.2	SCRAMBLED	0	0.522858657252073	0	0	2789.0	1
798.05810546875	0.2	SCRAMBLED	0	0.673597209511172	0	0	2797.0	1
799.54833984375	0.2	SCRAMBLED	0	0.428528739184912	0	0	2805.0	1
800.9482421875	0.2	SCRAMBLED	0	0.369316878400241	0	0	2813.0	1
802.1181640625	0.2	FACES	1	0.433216982476097	0	0	2821.0	1
803.3779296875	0.2	SCRAMBLED	0	n/a	0	1	2829.0	0
804.36767578125	0.2	SCRAMBLED	0	0.657960475320124	0	0	2839.0	1
805.74755859375	0.2	SCRAMBLED	0	0.562577121179856	0	0	2847.0	1
807.087890625	0.2	SCRAMBLED	0	0.397516064145293	0	0	2855.0	1
808.3974609375	0.2	FACES	1	0.508061049789376	0	0	2863.0	1
809.697265625	0.2	FACES	1	0.638207492496349	0	0	2871.0	1
811.1572265625	0.2	SCRAMBLED	0	0.599847025386225	0	0	2879.0	1
812.6572265625	0.2	SCRAMBLED	0	0.389777082060391	0	0	2886.0	1
813.95703125	0.2	SCRAMBLED	0	0.518587562572066	0	0	2894.0	1
815.35693359375	0.2	SCRAMBLED	0	0.3533553599068	0	0	2902.0	1
816.537109375	0.2	FACES	1	0.518323448943647	0	0	2910.0	1
817.876953125	0.2	SCRAMBLED	0	0.509085810669148	0	0	2918.0	1
819.20654296875	0.2	FACES	1	0.448991961286993	0	0	2926.0	1
820.4765625	0.2	SCRAMBLED	0	0.38988816070696	0	0	2934.0	1
821.6767578125	0.2	FACES	1	0.512707638588381	0	0	2942.0	1
823.1162109375	0.2	FACES	1	0.538508068897954	0	0	2950.0	1
824.51611328125	0.2	FACES	1	0.344300639184894	0	0	2958.0	1
825.666015625	0.2	SCRAMBLED	0	0.499190453997926	0	0	2966.0	1
826.99609375	0.2	FACES	1	1.04899805853847	0	0	2974.0	1
828.99609375	0.2	FACES	1	0.61273516677511	0	0	2978.0	1
830.4658203125	0.2	SCRAMBLED	0	0.639970866002841	0	0	2986.0	1
831.916015625	0.2	FACES	1	0.462311136117023	0	0	2994.0	1
833.33544921875	0.2	FACES	1	0.554195211061142	0	0	3002.0	1
834.67578125	0.2	FACES	1	0.417994680298762	0	0	3010.0	1
835.95556640625	0.2	FACES	1	0.363889720637417	0	0	3018.0	1
837.17529296875	0.2	SCRAMBLED	0	0.779431615397243	0	0	3026.0	1
838.79541015625	0.2	FACES	1	n/a	0	1	3032.0	0
839.955078125	0.2	SCRAMBLED	0	n/a	0	1	3040.0	0
841.84521484375	0.2	SCRAMBLED	0	0.622044945801008	0	0	3042.0	1
843.3447265625	0.2	SCRAMBLED	0	0.483944306132344	0	0	3049.0	1
844.5947265625	0.2	FACES	1	0.541732066231816	0	0	3057.0	1
845.89453125	0.2	FACES	1	0.409524631689692	0	0	3065.0	1
847.0146484375	0.2	SCRAMBLED	0	0.568450404591658	0	0	3073.0	1
848.314453125	0.2	FACES	1	1.00723882633338	0	0	3081.0	1
850.1044921875	0.2	FACES	1	0.518005305212682	0	0	3085.0	1
851.38427734375	0.2	SCRAMBLED	0	0.587974891396698	0	0	3093.0	1
852.80419921875	0.2	FACES	1	1.13731584488596	0	0	3101.0	1
854.7041015625	0.2	SCRAMBLED	0	0.626990360305172	0	0	3105.0	1
856.0341796875	0.2	FACES	1	0.612251914295484	0	0	3113.0	1
857.333984375	0.2	SCRAMBLED	0	0.623031976161656	0	0	3121.0	1
858.673828125	0.2	FACES	1	0.502950526537006	0	0	3129.0	1
860.0537109375	0.2	FACES	1	0.478738098285248	0	0	3137.0	1
861.4033203125	0.2	FACES	1	0.438527326554322	0	0	3145.0	1
862.8134765625	0.2	SCRAMBLED	0	0.559295169769484	0	0	3153.0	1
864.11328125	0.2	FACES	1	0.557259532841726	0	0	3161.0	1
865.4931640625	0.2	FACES	1	0.568988894549875	0	0	3169.0	1
866.73291015625	0.2	SCRAMBLED	0	0.607952144421688	0	0	3177.0	1
868.283203125	0.2	FACES	1	0.453711898213442	0	0	3183.0	1
869.68310546875	0.2	SCRAMBLED	0	0.653448509011014	0	0	3191.0	1
871.052734375	0.2	SCRAMBLED	0	0.618146326798069	0	0	3199.0	1
872.40283203125	0.2	SCRAMBLED	0	0.553077482185017	0	0	3207.0	1
905.22998046875	0.2	SCRAMBLED	0	0.597587721946184	0	0	3211.0	1
906.51025390625	0.2	SCRAMBLED	0	0.4828646096189	0	0	3219.0	1
n/a	0.2	FACES	1	0.457547431788953	1	0	n/a	1
n/a	0.2	SCRAMBLED	0	0.587429459023042	1	0	n/a	1
910.4599609375	0.2	SCRAMBLED	0	0.533288881752014	0	0	3227.0	1
911.9296875	0.2	SCRAMBLED	0	0.463038882355704	0	0	3235.0	1
913.0498046875	0.2	FACES	1	0.497084185539734	0	0	3243.0	1
914.24951171875	0.2	SCRAMBLED	0	0.52181246543887	0	0	3251.0	1
915.61962890625	0.2	SCRAMBLED	0	0.508700053849225	0	0	3259.0	1
916.84912109375	0.2	FACES	1	0.44748847559049	0	0	3267.0	1
917.94921875	0.2	FACES	1	n/a	0	1	3275.0	0
919.88916015625	0.2	FACES	1	n/a	0	1	3277.0	0
921.68896484375	0.2	FACES	1	n/a	0	1	3279.0	1
922.708984375	0.2	FACES	1	0.607717913363558	0	0	3285.0	1
923.96875	0.2	SCRAMBLED	0	0.573515349378795	0	0	3293.0	1
925.35888671875	0.2	FACES	1	0.613329497900395	0	0	3301.0	1
926.62841796875	0.2	SCRAMBLED	0	0.518228066193387	0	0	3309.0	1
927.978515625	0.2	FACES	1	0.508037204102038	0	0	3317.0	1
929.30859375	0.2	FACES	1	0.48941975895923	0	0	3325.0	1
930.54833984375	0.2	FACES	1	0.356725449808437	0	0	3333.0	1
931.8583984375	0.2	SCRAMBLED	0	0.538484525054173	0	0	3341.0	1
933.248046875	0.2	FACES	1	0.512418773740137	0	0	3349.0	1
934.5478515625	0.2	FACES	1	0.509202020665725	0	0	3357.0	1
935.927734375	0.2	FACES	1	0.519002598274255	0	0	3365.0	1
937.41796875	0.2	SCRAMBLED	0	0.468916391585935	0	0	3373.0	1
938.74755859375	0.2	SCRAMBLED	0	0.427711948922934	0	0	3381.0	1
939.83740234375	0.2	SCRAMBLED	0	0.4174996558977	0	0	3389.0	1
941.03759765625	0.2	FACES	1	0.638305893688084	0	0	3397.0	1
942.38720703125	0.2	FACES	1	0.451822655697015	0	0	3405.0	1
943.75732421875	0.2	SCRAMBLED	0	0.53858624653185	0	0	3413.0	1
945.17724609375	0.2	FACES	1	0.508596823150583	0	0	3421.0	1
946.5869140625	0.2	SCRAMBLED	0	0.638588419809821	0	0	3429.0	1
947.88671875	0.2	FACES	1	0.462466887696792	0	0	3437.0	1
949.27685546875	0.2	SCRAMBLED	0	0.534233955776017	0	0	3445.0	1
950.4765625	0.2	SCRAMBLED	0	0.495771767189126	0	0	3453.0	1
951.62646484375	0.2	FACES	1	0.532854226180461	0	0	3461.0	1
952.896484375	0.2	FACES	1	0.567780914273953	0	0	3469.0	1
954.42626953125	0.2	SCRAMBLED	0	0.558696009137748	0	0	3475.0	1
955.8662109375	0.2	SCRAMBLED	0	0.2834944376159	0	0	3483.0	1
956.986328125	0.2	FACES	1	0.548263068040342	0	0	3491.0	1
958.46630859375	0.2	SCRAMBLED	0	0.454172814225785	0	0	3499.0	1
959.68603515625	0.2	FACES	1	0.66197681354015	0	0	3507.0	1
961.10595703125	0.2	FACES	1	0.481908367361484	0	0	3515.0	1
962.265625	0.2	SCRAMBLED	0	0.492607534995841	0	0	3523.0	1
963.41552734375	0.2	FACES	1	0.572471270474125	0	0	3531.0	1
964.82568359375	0.2	FACES	1	0.487413099070181	0	0	3539.0	1
966.20556640625	0.2	SCRAMBLED	0	0.62415996773916	0	0	3547.0	1
967.58544921875	0.2	SCRAMBLED	0	0.427002011489549	0	0	3555.0	1
968.84521484375	0.2	FACES	1	0.548756281376882	0	0	3563.0	1
970.3251953125	0.2	SCRAMBLED	0	0.553529946561412	0	0	3571.0	1
971.7451171875	0.2	FACES	1	0.983588431883163	0	0	3579.0	1
973.6748046875	0.2	FACES	1	0.532192281965763	0	0	3584.0	1
974.89501953125	0.2	SCRAMBLED	0	0.542977475182397	0	0	3592.0	1
976.11474609375	0.2	SCRAMBLED	0	0.447898681786228	0	0	3600.0	1
977.33447265625	0.2	SCRAMBLED	0	0.374768787383346	0	0	3608.0	1
978.39453125	0.2	SCRAMBLED	0	0.352533740138824	0	0	3616.0	1
979.41455078125	0.2	SCRAMBLED	0	0.396467759423103	0	0	3624.0	1
980.5546875	0.2	FACES	1	0.43735677495215	0	0	3632.0	1
981.83447265625	0.2	FACES	1	0.593156348023967	0	0	3640.0	1
983.13427734375	0.2	FACES	1	0.47094961376024	0	0	3648.0	1
984.404296875	0.2	SCRAMBLED	0	0.603760434752076	0	0	3656.0	1
985.9541015625	0.2	FACES	1	0.393631631817698	0	0	3662.0	1
987.2841796875	0.2	FACES	1	0.408462743980635	0	0	3670.0	1
988.3740234375	0.2	SCRAMBLED	0	0.66338974599239	0	0	3678.0	1
989.77392578125	0.2	SCRAMBLED	0	0.57112202713688	0	0	3686.0	1
991.2236328125	0.2	FACES	1	0.470012085839699	0	0	3694.0	1
992.3935546875	0.2	FACES	1	0.476875418054078	0	0	3702.0	1
993.62353515625	0.2	SCRAMBLED	0	0.58765433291228	0	0	3710.0	1
994.9931640625	0.2	SCRAMBLED	0	0.533436181695379	0	0	3718.0	1
996.26318359375	0.2	SCRAMBLED	0	0.433243846605365	0	0	3726.0	1
n/a	0.2	SCRAMBLED	0	0.498139432677817	1	0	n/a	1
n/a	0.2	SCRAMBLED	0	0.44794546762887	1	0	n/a	1
999.98291015625	0.2	FACES	1	0.271781073647617	0	0	3734.0	1
1001.0126953125	0.2	SCRAMBLED	0	0.557642874908197	0	0	3742.0	1
1002.4326171875	0.2	SCRAMBLED	0	0.529441878098169	0	0	3750.0	1
1003.7529296875	0.2	FACES	1	0.698247915464435	0	0	3758.0	1
1005.2724609375	0.2	FACES	1	0.538148874362832	0	0	3764.0	1
1006.72265625	0.2	FACES	1	0.413798744811174	0	0	3772.0	1
1007.892578125	0.2	FACES	1	0.44174890913564	0	0	3780.0	1
1009.0224609375	0.2	FACES	1	0.507598624556977	0	0	3788.0	1
1010.4921875	0.2	SCRAMBLED	0	0.68818111131759	0	0	3796.0	1
1011.822265625	0.2	FACES	1	0.503248446710131	0	0	3804.0	1
1013.11181640625	0.2	FACES	1	0.51815351068899	0	0	3812.0	1
1014.31201171875	0.2	FACES	1	0.376712060001864	0	0	3820.0	1
1015.4619140625	0.2	SCRAMBLED	0	0.597692763709347	0	0	3828.0	1
1016.78173828125	0.2	FACES	1	0.50653945344493	0	0	3836.0	1
1018.1416015625	0.2	FACES	1	0.483609259129935	0	0	3844.0	1
1019.361328125	0.2	SCRAMBLED	0	0.482278428285099	0	0	3852.0	1
1020.5615234375	0.2	SCRAMBLED	0	0.688169641240165	0	0	3860.0	1
1021.96142578125	0.2	FACES	1	0.442971377930462	0	0	3868.0	1
1023.3310546875	0.2	SCRAMBLED	0	0.57474174214758	0	0	3876.0	1
1024.7509765625	0.2	FACES	1	0.44768527797396	0	0	3884.0	1
1026.12109375	0.2	SCRAMBLED	0	0.714456040625464	0	0	3892.0	1
1027.80078125	0.2	FACES	1	0.603548842005239	0	0	3898.0	1
1029.140625	0.2	SCRAMBLED	0	0.552132710005026	0	0	3906.0	1
1030.6005859375	0.2	SCRAMBLED	0	0.498945658394859	0	0	3914.0	1
1031.92041015625	0.2	FACES	1	0.589326851330497	0	0	3922.0	1
1033.3203125	0.2	SCRAMBLED	0	n/a	0	1	3930.0	0
n/a	0.2	SCRAMBLED	0	0.624500447936498	1	0	n/a	1
n/a	0.2	SCRAMBLED	0	0.611944938797933	1	0	n/a	1
1038.330078125	0.2	FACES	1	0.498924227460066	0	0	3936.0	1
1039.56005859375	0.2	SCRAMBLED	0	0.551120022892064	0	0	3944.0	1
1040.85009765625	0.2	SCRAMBLED	0	0.401637444128482	0	0	3952.0	1
1042.07958984375	0.2	SCRAMBLED	0	0.374420157393615	0	0	3960.0	1
1043.14990234375	0.2	SCRAMBLED	0	0.441242112812233	0	0	3968.0	1
1044.51953125	0.2	FACES	1	0.498007828629852	0	0	3976.0	1
1045.9296875	0.2	SCRAMBLED	0	0.578956391972042	0	0	3984.0	1
1047.349609375	0.2	SCRAMBLED	0	0.474649015626255	0	0	3992.0	1
1048.54931640625	0.2	FACES	1	0.606478843139939	0	0	4000.0	1
1049.9189453125	0.2	SCRAMBLED	0	0.607539221628485	0	0	4008.0	1
1051.4189453125	0.2	SCRAMBLED	0	0.403460582776461	0	0	4015.0	1
1052.46875	0.2	FACES	1	0.682113440274861	0	0	4023.0	1
1054.11865234375	0.2	SCRAMBLED	0	0.539898664882912	0	0	4029.0	1
1055.30859375	0.2	FACES	1	0.582719482953053	0	0	4037.0	1
1056.85888671875	0.2	SCRAMBLED	0	0.618453905983642	0	0	4043.0	1
1058.2783203125	0.2	FACES	1	0.693160634210926	0	0	4051.0	1
1059.6982421875	0.2	SCRAMBLED	0	0.578018864051955	0	0	4059.0	1
1060.95849609375	0.2	SCRAMBLED	0	0.512944284399964	0	0	4067.0	1
1062.37841796875	0.2	SCRAMBLED	0	0.398483474636578	0	0	4075.0	1
1063.67822265625	0.2	SCRAMBLED	0	0.408670110909497	0	0	4083.0	1
1064.998046875	0.2	FACES	1	0.581461094704082	0	0	4091.0	1
1066.44775390625	0.2	FACES	1	0.602981978696789	0	0	4099.0	1
1067.78759765625	0.2	SCRAMBLED	0	0.56314790846136	0	0	4107.0	1
1069.19775390625	0.2	SCRAMBLED	0	0.458923841099931	0	0	4115.0	1
1070.4677734375	0.2	FACES	1	0.58284897409203	0	0	4123.0	1
1071.9375	0.2	FACES	1	0.617479251233362	0	0	4131.0	1
1073.3173828125	0.2	FACES	1	0.422189408409849	0	0	4139.0	1
1074.45751953125	0.2	SCRAMBLED	0	0.488079269102855	0	0	4147.0	1
1075.87744140625	0.2	FACES	1	0.408018429396179	0	0	4155.0	1
1077.22705078125	0.2	FACES	1	0.593896469872107	0	0	4163.0	1
1078.69677734375	0.2	SCRAMBLED	0	0.528736166482759	0	0	4171.0	1
1079.9267578125	0.2	SCRAMBLED	0	0.43738997780838	0	0	4179.0	1
1081.02685546875	0.2	FACES	1	0.632441967444265	0	0	4187.0	1
1082.546875	0.2	FACES	1	0.51820723894707	0	0	4193.0	1
1083.966796875	0.2	FACES	1	0.503059794118144	0	0	4201.0	1
1085.29638671875	0.2	FACES	1	0.457777437029563	0	0	4209.0	1
1086.66650390625	0.2	FACES	1	0.382683744606311	0	0	4217.0	1
1087.896484375	0.2	FACES	1	0.303592730144373	0	0	4225.0	1
1088.8662109375	0.2	SCRAMBLED	0	0.537412676488202	0	0	4235.0	1
1090.2861328125	0.2	SCRAMBLED	0	0.464198265724463	0	0	4243.0	1
1091.416015625	0.2	FACES	1	0.472102658402036	0	0	4251.0	1
1092.7158203125	0.2	SCRAMBLED	0	0.39398237471687	0	0	4259.0	1
1093.81591796875	0.2	SCRAMBLED	0	0.446721791457094	0	0	4267.0	1
1094.935546875	0.2	FACES	1	0.48056516090719	0	0	4275.0	1
1096.17578125	0.2	FACES	1	0.542427515146755	0	0	4283.0	1
1097.58544921875	0.2	FACES	1	0.488246490760048	0	0	4291.0	1
1098.9755859375	0.2	FACES	1	0.418131717541655	0	0	4299.0	1
1100.12548828125	0.2	FACES	1	0.367093494413439	0	0	4307.0	1
1101.17529296875	0.2	SCRAMBLED	0	0.54286850944527	0	0	4315.0	1
1102.39501953125	0.2	SCRAMBLED	0	0.432684529400831	0	0	4323.0	1
