onset	duration	trial_type	trial_type_id	response_time	bad_epoch	outliers	event_num	response_accuracy
38.45703125	0.2	FACES	1	0.623601652797333	0	0	1.0	1
39.92724609375	0.2	SCRAMBLED	0	0.563414428742362	0	0	9.0	1
41.447265625	0.2	SCRAMBLED	0	0.464281908848534	0	0	15.0	1
42.61669921875	0.2	SCRAMBLED	0	0.545082312359227	0	0	23.0	1
43.86669921875	0.2	FACES	1	0.650906795768606	0	0	31.0	1
45.44677734375	0.2	SCRAMBLED	0	0.58783390769895	0	0	37.0	1
46.98681640625	0.2	SCRAMBLED	0	0.558574904563102	0	0	43.0	1
48.396484375	0.2	FACES	1	0.600479213409017	0	0	51.0	1
49.81640625	0.2	SCRAMBLED	0	0.602128509243812	0	0	59.0	1
51.1865234375	0.2	SCRAMBLED	0	0.71689281599447	0	0	67.0	1
52.55615234375	0.2	FACES	1	0.719839453245186	0	0	75.0	1
53.98583984375	0.2	SCRAMBLED	0	0.547385712159667	0	0	83.0	1
55.18603515625	0.2	FACES	1	0.580503536296419	0	0	91.0	1
56.505859375	0.2	FACES	1	0.454353232441463	0	0	99.0	1
57.85595703125	0.2	FACES	1	0.408150008647681	0	0	107.0	1
58.92578125	0.2	FACES	1	0.438968357003432	0	0	115.0	1
60.10546875	0.2	FACES	1	0.432845376402838	0	0	123.0	1
61.275390625	0.2	SCRAMBLED	0	0.559674233888472	0	0	131.0	1
62.5751953125	0.2	FACES	1	0.474590913358043	0	0	139.0	1
63.87548828125	0.2	SCRAMBLED	0	0.559338881093026	0	0	147.0	1
65.275390625	0.2	FACES	1	0.501162868265055	0	0	155.0	1
66.615234375	0.2	FACES	1	0.432898803445823	0	0	163.0	1
67.89501953125	0.2	FACES	1	0.478859643535543	0	0	171.0	1
69.26513671875	0.2	FACES	1	0.448434904580608	0	0	179.0	1
70.56494140625	0.2	FACES	1	0.471595074931429	0	0	187.0	1
71.884765625	0.2	FACES	1	0.447310823745283	0	0	195.0	1
73.0546875	0.2	SCRAMBLED	0	0.714176790386773	0	0	203.0	1
74.62451171875	0.2	FACES	1	0.582006134149196	0	0	209.0	1
76.0341796875	0.2	FACES	1	0.466834333003135	0	0	217.0	1
77.43408203125	0.2	FACES	1	0.485660272224777	0	0	225.0	1
78.654296875	0.2	SCRAMBLED	0	0.570371414540205	0	0	233.0	1
80.1240234375	0.2	FACES	1	0.566360160450131	0	0	241.0	1
81.59375	0.2	FACES	1	0.603143924908181	0	0	249.0	1
82.9140625	0.2	SCRAMBLED	0	0.54590545103747	0	0	257.0	1
84.1435546875	0.2	SCRAMBLED	0	0.479810765639741	0	0	265.0	1
85.2734375	0.2	FACES	1	0.561334094391896	0	0	273.0	1
86.59375	0.2	FACES	1	0.52042588295717	0	0	281.0	1
87.93359375	0.2	SCRAMBLED	0	0.589208823974332	0	0	289.0	1
89.283203125	0.2	FACES	1	0.484087042010287	0	0	297.0	1
90.51318359375	0.2	SCRAMBLED	0	0.652275675090095	0	0	305.0	1
92.0029296875	0.2	SCRAMBLED	0	0.450836404885194	0	0	313.0	1
93.18310546875	0.2	SCRAMBLED	0	0.382597393424476	0	0	321.0	1
94.40283203125	0.2	SCRAMBLED	0	0.332442379538406	0	0	329.0	1
95.68310546875	0.2	SCRAMBLED	0	0.463314185120907	0	0	337.0	1
96.87255859375	0.2	FACES	1	0.517130611612629	0	0	345.0	1
98.0927734375	0.2	FACES	1	0.441882394702588	0	0	353.0	1
99.3427734375	0.2	FACES	1	0.325854553478166	0	0	361.0	1
100.552734375	0.2	SCRAMBLED	0	0.753621342322731	0	0	369.0	1
102.16259765625	0.2	SCRAMBLED	0	0.640391629280202	0	0	375.0	1
103.4921875	0.2	FACES	1	0.602335274918914	0	0	383.0	1
104.8623046875	0.2	FACES	1	0.302101252395914	0	0	391.0	1
105.88232421875	0.2	FACES	1	0.382064632233778	0	0	399.0	1
107.091796875	0.2	SCRAMBLED	0	0.472833857894329	0	0	407.0	1
108.33203125	0.2	FACES	1	0.621641151983567	0	0	415.0	1
109.91162109375	0.2	SCRAMBLED	0	n/a	0	1	421.0	0
111.2314453125	0.2	FACES	1	0.513293221798449	0	0	429.0	1
112.5517578125	0.2	SCRAMBLED	0	0.486086179329504	0	0	437.0	1
114.00146484375	0.2	SCRAMBLED	0	0.53899615717728	0	0	445.0	1
115.2314453125	0.2	FACES	1	0.479783297499125	0	0	453.0	1
116.4013671875	0.2	SCRAMBLED	0	0.462671249520099	0	0	461.0	1
117.7509765625	0.2	SCRAMBLED	0	0.552424757668632	0	0	469.0	1
119.0009765625	0.2	SCRAMBLED	0	0.422345604146358	0	0	477.0	1
120.35107421875	0.2	SCRAMBLED	0	0.331112740418575	0	0	485.0	1
121.61083984375	0.2	FACES	1	0.510874516176045	0	0	493.0	1
122.82080078125	0.2	SCRAMBLED	0	0.55779372271536	0	0	501.0	1
124.29052734375	0.2	SCRAMBLED	0	0.506622085773415	0	0	509.0	1
125.49072265625	0.2	SCRAMBLED	0	0.562405050032794	0	0	517.0	1
127.01025390625	0.2	SCRAMBLED	0	0.436224259559822	0	0	523.0	1
128.13037109375	0.2	SCRAMBLED	0	n/a	0	1	531.0	0
130.01025390625	0.2	SCRAMBLED	0	0.501108535679123	0	0	533.0	1
131.31005859375	0.2	FACES	1	0.51965073806241	0	0	541.0	1
132.5	0.2	FACES	1	0.501596925259037	0	0	549.0	1
133.72998046875	0.2	SCRAMBLED	0	0.532259520201478	0	0	557.0	1
134.94970703125	0.2	FACES	1	0.562057019634267	0	0	565.0	1
136.2998046875	0.2	FACES	1	0.497827753024467	0	0	573.0	1
137.51953125	0.2	SCRAMBLED	0	0.437779982607935	0	0	581.0	1
138.83935546875	0.2	FACES	1	0.487840518163466	0	0	589.0	1
140.099609375	0.2	FACES	1	0.648629354869627	0	0	597.0	1
141.41943359375	0.2	SCRAMBLED	0	0.555370187529661	0	0	605.0	1
142.6591796875	0.2	SCRAMBLED	0	0.621038965820844	0	0	613.0	1
144.109375	0.2	SCRAMBLED	0	0.444098560518796	0	0	621.0	1
145.35888671875	0.2	FACES	1	0.382867848963542	0	0	629.0	1
146.67919921875	0.2	FACES	1	0.435839705589387	0	0	637.0	1
147.87890625	0.2	FACES	1	0.489576444289014	0	0	645.0	1
149.27880859375	0.2	FACES	1	0.46140620580718	0	0	653.0	1
150.52880859375	0.2	FACES	1	0.422218526265169	0	0	661.0	1
151.728515625	0.2	SCRAMBLED	0	0.477947157937706	0	0	669.0	1
152.978515625	0.2	SCRAMBLED	0	0.4790163024918	0	0	677.0	1
154.3681640625	0.2	FACES	1	0.515805198360795	0	0	685.0	1
155.828125	0.2	SCRAMBLED	0	0.596586283617398	0	0	693.0	1
157.1181640625	0.2	FACES	1	0.763395472707089	0	0	701.0	1
158.56787109375	0.2	SCRAMBLED	0	0.698270623970529	0	0	709.0	1
159.998046875	0.2	SCRAMBLED	0	0.651908628286037	0	0	717.0	1
161.5078125	0.2	SCRAMBLED	0	0.377864421483537	0	0	723.0	1
162.7578125	0.2	SCRAMBLED	0	0.418648573513565	0	0	731.0	1
163.81787109375	0.2	FACES	1	0.531583381352903	0	0	739.0	1
165.28759765625	0.2	FACES	1	0.648594944232173	0	0	747.0	1
166.857421875	0.2	FACES	1	0.493117419660848	0	0	753.0	1
168.2275390625	0.2	SCRAMBLED	0	0.524566026015236	0	0	761.0	1
169.6572265625	0.2	SCRAMBLED	0	0.608847639053238	0	0	769.0	1
171.20703125	0.2	SCRAMBLED	0	0.503604212466598	0	0	775.0	1
172.376953125	0.2	SCRAMBLED	0	0.777363776886887	0	0	783.0	1
174.0966796875	0.2	SCRAMBLED	0	0.783128766115624	0	0	788.0	1
175.56689453125	0.2	SCRAMBLED	0	0.542907801525871	0	0	796.0	1
177.06640625	0.2	SCRAMBLED	0	0.349936868553414	0	0	803.0	1
178.0966796875	0.2	SCRAMBLED	0	0.792517436987509	0	0	811.0	1
179.6865234375	0.2	SCRAMBLED	0	0.44242028730423	0	0	817.0	1
181.01611328125	0.2	SCRAMBLED	0	0.404242590167087	0	0	825.0	1
182.13623046875	0.2	SCRAMBLED	0	0.508205880657442	0	0	833.0	1
183.56591796875	0.2	SCRAMBLED	0	0.373963643651223	0	0	841.0	1
184.65625	0.2	SCRAMBLED	0	0.455875148546511	0	0	849.0	1
185.826171875	0.2	SCRAMBLED	0	0.417685075653026	0	0	857.0	1
187.15576171875	0.2	FACES	1	0.563509812615848	0	0	865.0	1
188.3857421875	0.2	SCRAMBLED	0	0.542380171745208	0	0	873.0	1
189.69580078125	0.2	FACES	1	0.42102471860926	0	0	881.0	1
190.845703125	0.2	FACES	1	0.408056435860999	0	0	889.0	1
192.1953125	0.2	FACES	1	0.36888143392116	0	0	897.0	1
193.4755859375	0.2	FACES	1	0.298524055299822	0	0	905.0	1
194.615234375	0.2	FACES	1	0.335644983638304	0	0	913.0	1
195.9150390625	0.2	SCRAMBLED	0	n/a	0	1	921.0	0
197.044921875	0.2	FACES	1	n/a	0	1	929.0	0
198.21484375	0.2	FACES	1	0.421093841733637	0	0	937.0	1
199.4150390625	0.2	FACES	1	0.336966774718348	0	0	945.0	1
200.46484375	0.2	FACES	1	0.381821342986768	0	0	953.0	1
201.53466796875	0.2	FACES	1	0.446695054436532	0	0	961.0	1
202.86474609375	0.2	SCRAMBLED	0	0.692440435638673	0	0	969.0	1
204.2646484375	0.2	FACES	1	0.629359095833024	0	0	977.0	1
205.63427734375	0.2	FACES	1	0.564124374534003	0	0	985.0	1
207.00439453125	0.2	FACES	1	0.481897438791748	0	0	993.0	1
208.154296875	0.2	SCRAMBLED	0	0.583825672086277	0	0	1001.0	1
209.42431640625	0.2	FACES	1	0.46265162941927	0	0	1009.0	1
210.64404296875	0.2	FACES	1	0.534460291784853	0	0	1017.0	1
211.8740234375	0.2	SCRAMBLED	0	0.624305561634174	0	0	1025.0	1
213.2236328125	0.2	SCRAMBLED	0	0.423204360853561	0	0	1033.0	1
214.41357421875	0.2	FACES	1	0.61895138712589	0	0	1041.0	1
215.9736328125	0.2	SCRAMBLED	0	0.577762759176949	0	0	1047.0	1
217.24365234375	0.2	SCRAMBLED	0	1.00247273636069	0	0	1055.0	1
219.08349609375	0.2	FACES	1	0.587408302441872	0	0	1059.0	1
220.4931640625	0.2	FACES	1	0.638158559993826	0	0	1067.0	1
222.00341796875	0.2	FACES	1	0.414100030517147	0	0	1073.0	1
223.31298828125	0.2	SCRAMBLED	0	0.529858925439839	0	0	1081.0	1
224.623046875	0.2	SCRAMBLED	0	0.743701117651653	0	0	1089.0	1
226.123046875	0.2	SCRAMBLED	0	0.48744328659086	0	0	1096.0	1
227.37255859375	0.2	FACES	1	0.672388391058121	0	0	1104.0	1
228.9228515625	0.2	SCRAMBLED	0	0.57373007390197	0	0	1110.0	1
230.45263671875	0.2	FACES	1	0.682885748532499	0	0	1116.0	1
231.92236328125	0.2	FACES	1	0.428808767105693	0	0	1124.0	1
233.162109375	0.2	FACES	1	0.422444610192542	0	0	1132.0	1
234.42236328125	0.2	SCRAMBLED	0	0.482381300655106	0	0	1140.0	1
235.7822265625	0.2	FACES	1	0.587387173102798	0	0	1148.0	1
n/a	0.2	FACES	1	0.470668100644616	1	0	n/a	1
n/a	0.2	SCRAMBLED	0	0.50283510452482	1	0	n/a	1
271.7392578125	0.2	FACES	1	0.61664798732545	0	0	1155.0	1
273.26904296875	0.2	SCRAMBLED	0	0.868369349297609	0	0	1161.0	1
274.869140625	0.2	SCRAMBLED	0	0.902191082272111	0	0	1167.0	1
276.458984375	0.2	FACES	1	0.477632934482244	0	0	1173.0	1
277.8388671875	0.2	FACES	1	0.309842438518899	0	0	1181.0	1
279.07861328125	0.2	SCRAMBLED	0	0.439652042045054	0	0	1189.0	1
280.228515625	0.2	SCRAMBLED	0	0.467577783888373	0	0	1197.0	1
281.3984375	0.2	FACES	1	0.621356207753706	0	0	1205.0	1
282.8984375	0.2	FACES	1	0.357170648691863	0	0	1212.0	1
284.0986328125	0.2	SCRAMBLED	0	0.503962807533753	0	0	1220.0	1
285.34814453125	0.2	FACES	1	0.611861588340616	0	0	1228.0	1
286.818359375	0.2	FACES	1	n/a	0	1	1236.0	0
288.318359375	0.2	FACES	1	0.628087109624175	0	0	1243.0	1
289.68798828125	0.2	SCRAMBLED	0	0.582393404748473	0	0	1251.0	1
291.09814453125	0.2	SCRAMBLED	0	0.453126221539605	0	0	1259.0	1
292.41796875	0.2	FACES	1	0.454976246095612	0	0	1267.0	1
293.61767578125	0.2	SCRAMBLED	0	0.602918746523756	0	0	1275.0	1
294.98779296875	0.2	SCRAMBLED	0	0.483591106239146	0	0	1283.0	1
296.1376953125	0.2	SCRAMBLED	0	0.598198452185898	0	0	1291.0	1
297.67724609375	0.2	FACES	1	0.607300065893469	0	0	1297.0	1
299.1572265625	0.2	SCRAMBLED	0	0.68313839505754	0	0	1305.0	1
300.80712890625	0.2	FACES	1	0.482960848240509	0	0	1311.0	1
302.2470703125	0.2	FACES	1	0.373669643991889	0	0	1319.0	1
303.296875	0.2	SCRAMBLED	0	0.992504517905218	0	0	1327.0	1
305.02685546875	0.2	FACES	1	0.507355575685324	0	0	1331.0	1
306.31689453125	0.2	FACES	1	0.448187087619772	0	0	1339.0	1
307.73681640625	0.2	SCRAMBLED	0	0.458982670621481	0	0	1347.0	1
308.99658203125	0.2	SCRAMBLED	0	0.657849594724212	0	0	1355.0	1
310.4365234375	0.2	FACES	1	0.52838590866304	0	0	1363.0	1
311.90625	0.2	SCRAMBLED	0	0.623404546248821	0	0	1371.0	1
313.30615234375	0.2	FACES	1	0.677870850839099	0	0	1379.0	1
314.7060546875	0.2	SCRAMBLED	0	n/a	0	1	1387.0	0
316.576171875	0.2	FACES	1	0.527611367464488	0	0	1389.0	1
318.02587890625	0.2	SCRAMBLED	0	0.608698828135857	0	0	1397.0	1
319.4755859375	0.2	FACES	1	0.453437124671837	0	0	1405.0	1
320.595703125	0.2	SCRAMBLED	0	0.618393572575769	0	0	1413.0	1
321.92578125	0.2	SCRAMBLED	0	0.797014364026836	0	0	1421.0	1
323.67529296875	0.2	FACES	1	0.444407350715665	0	0	1426.0	1
324.96533203125	0.2	FACES	1	0.467675280695403	0	0	1434.0	1
n/a	0.2	SCRAMBLED	0	0.682785535095718	1	0	n/a	1
n/a	0.2	FACES	1	0.380344704036361	1	0	n/a	1
329.01513671875	0.2	FACES	1	0.417300219835852	0	0	1442.0	1
330.1650390625	0.2	FACES	1	0.536978305300181	0	0	1450.0	1
331.65478515625	0.2	SCRAMBLED	0	0.521525815976929	0	0	1458.0	1
332.83447265625	0.2	SCRAMBLED	0	0.606876271722285	0	0	1466.0	1
334.20458984375	0.2	SCRAMBLED	0	0.657400445345957	0	0	1474.0	1
335.6044921875	0.2	FACES	1	0.492447015918515	0	0	1482.0	1
336.80419921875	0.2	FACES	1	0.541078604461291	0	0	1490.0	1
338.2041015625	0.2	FACES	1	0.493759751567268	0	0	1498.0	1
339.59423828125	0.2	FACES	1	0.499013108943473	0	0	1506.0	1
340.7939453125	0.2	FACES	1	0.799675453353302	0	0	1514.0	1
342.55419921875	0.2	SCRAMBLED	0	0.517344923479868	0	0	1519.0	1
343.7236328125	0.2	FACES	1	0.562364602440539	0	0	1527.0	1
345.07373046875	0.2	FACES	1	0.398169716284428	0	0	1535.0	1
346.263671875	0.2	SCRAMBLED	0	0.584822071345116	0	0	1543.0	1
347.71337890625	0.2	SCRAMBLED	0	0.577867198481727	0	0	1551.0	1
348.99365234375	0.2	SCRAMBLED	0	0.427675932686725	0	0	1559.0	1
350.193359375	0.2	FACES	1	0.468483628837021	0	0	1567.0	1
351.36328125	0.2	SCRAMBLED	0	0.463210047664688	0	0	1575.0	1
352.783203125	0.2	FACES	1	0.523174206268777	0	0	1583.0	1
354.26318359375	0.2	SCRAMBLED	0	0.498960889291084	0	0	1591.0	1
355.52294921875	0.2	SCRAMBLED	0	0.536867829042421	0	0	1599.0	1
356.9228515625	0.2	FACES	1	0.583636111730812	0	0	1607.0	1
358.33251953125	0.2	SCRAMBLED	0	0.973459437253041	0	0	1615.0	1
360.052734375	0.2	SCRAMBLED	0	0.572188537696093	0	0	1620.0	1
361.572265625	0.2	FACES	1	0.534097169001143	0	0	1626.0	1
362.9423828125	0.2	SCRAMBLED	0	0.663907979917894	0	0	1634.0	1
364.29248046875	0.2	FACES	1	0.456795784032693	0	0	1642.0	1
365.662109375	0.2	FACES	1	0.472484318256647	0	0	1650.0	1
366.7919921875	0.2	SCRAMBLED	0	0.597695272069359	0	0	1658.0	1
368.18212890625	0.2	SCRAMBLED	0	0.532913322319473	0	0	1666.0	1
369.6318359375	0.2	SCRAMBLED	0	0.429136875555741	0	0	1674.0	1
n/a	0.2	FACES	1	0.538925826662307	1	0	n/a	1
n/a	0.2	FACES	1	0.926392325341112	1	0	n/a	1
374.08154296875	0.2	FACES	1	0.450425288317092	0	0	1680.0	1
375.3515625	0.2	SCRAMBLED	0	0.667389491292852	0	0	1688.0	1
376.83154296875	0.2	SCRAMBLED	0	0.558034899027007	0	0	1696.0	1
378.201171875	0.2	SCRAMBLED	0	0.488898796201283	0	0	1704.0	1
379.62109375	0.2	FACES	1	0.55876355937653	0	0	1712.0	1
380.8408203125	0.2	SCRAMBLED	0	0.977481557859392	0	0	1720.0	1
382.69091796875	0.2	SCRAMBLED	0	0.428151946510297	0	0	1725.0	1
383.99072265625	0.2	FACES	1	0.557020992601792	0	0	1733.0	1
385.5107421875	0.2	FACES	1	0.42397980759597	0	0	1739.0	1
386.84033203125	0.2	SCRAMBLED	0	0.958826162588593	0	0	1747.0	1
388.6103515625	0.2	SCRAMBLED	0	0.428304379599467	0	0	1752.0	1
389.79052734375	0.2	FACES	1	0.551468806002049	0	0	1760.0	1
391.22998046875	0.2	FACES	1	0.37792811134841	0	0	1768.0	1
392.5	0.2	FACES	1	0.375177976949999	0	0	1776.0	1
393.6298828125	0.2	SCRAMBLED	0	0.547057301861969	0	0	1784.0	1
395.080078125	0.2	SCRAMBLED	0	n/a	0	1	1792.0	0
396.2197265625	0.2	SCRAMBLED	0	0.783396505026758	0	0	1800.0	1
397.7998046875	0.2	FACES	1	0.513410640553957	0	0	1806.0	1
399.06982421875	0.2	FACES	1	0.472320716803551	0	0	1814.0	1
400.3193359375	0.2	SCRAMBLED	0	0.717072113528047	0	0	1822.0	1
401.939453125	0.2	SCRAMBLED	0	0.448876809615285	0	0	1828.0	1
403.1591796875	0.2	SCRAMBLED	0	0.43769093753599	0	0	1836.0	1
404.5390625	0.2	FACES	1	0.49342500246803	0	0	1844.0	1
405.97900390625	0.2	FACES	1	0.478405664593993	0	0	1852.0	1
407.38916015625	0.2	SCRAMBLED	0	0.693066769616962	0	0	1860.0	1
408.98876953125	0.2	SCRAMBLED	0	0.358974490549372	0	0	1866.0	1
410.30859375	0.2	SCRAMBLED	0	0.418676947197127	0	0	1874.0	1
411.49853515625	0.2	SCRAMBLED	0	0.417671794354646	0	0	1882.0	1
412.8583984375	0.2	SCRAMBLED	0	0.398461904857868	0	0	1890.0	1
414.1484375	0.2	FACES	1	0.56839099177796	0	0	1898.0	1
415.62841796875	0.2	FACES	1	0.463181975828775	0	0	1906.0	1
416.79833984375	0.2	SCRAMBLED	0	0.687904570246246	0	0	1914.0	1
418.39794921875	0.2	SCRAMBLED	0	0.818735626389753	0	0	1920.0	1
420.0478515625	0.2	FACES	1	0.628447515778134	0	0	1926.0	1
421.51806640625	0.2	SCRAMBLED	0	0.593424428957405	0	0	1934.0	1
423.06787109375	0.2	FACES	1	0.524173925852665	0	0	1940.0	1
424.35791015625	0.2	FACES	1	0.401983260129782	0	0	1948.0	1
425.62744140625	0.2	SCRAMBLED	0	0.568817502578895	0	0	1956.0	1
426.8876953125	0.2	FACES	1	0.561684237723966	0	0	1964.0	1
428.25732421875	0.2	FACES	1	0.343220757221388	0	0	1972.0	1
429.38720703125	0.2	SCRAMBLED	0	0.613127537595574	0	0	1980.0	1
430.7470703125	0.2	SCRAMBLED	0	0.562291253449985	0	0	1988.0	1
432.2568359375	0.2	FACES	1	0.52294963157965	0	0	1994.0	1
433.6767578125	0.2	SCRAMBLED	0	n/a	0	1	2002.0	0
435.01708984375	0.2	FACES	1	n/a	0	1	2010.0	0
436.86669921875	0.2	SCRAMBLED	0	n/a	0	1	2015.0	0
438.86669921875	0.2	FACES	1	0.58412963272076	0	0	2017.0	1
440.1865234375	0.2	FACES	1	0.507066405588375	0	0	2025.0	1
441.4462890625	0.2	SCRAMBLED	0	0.617717433727194	0	0	2033.0	1
442.93603515625	0.2	SCRAMBLED	0	0.588509744699877	0	0	2041.0	1
444.18603515625	0.2	FACES	1	0.522396948440473	0	0	2049.0	1
445.52587890625	0.2	FACES	1	0.432231418179981	0	0	2057.0	1
446.755859375	0.2	SCRAMBLED	0	n/a	0	1	2065.0	0
448.755859375	0.2	FACES	1	0.541506322652822	0	0	2067.0	1
450.2255859375	0.2	FACES	1	0.737665974731499	0	0	2075.0	1
451.74560546875	0.2	FACES	1	0.358467990107783	0	0	2081.0	1
452.8955078125	0.2	FACES	1	0.468249093174563	0	0	2089.0	1
454.115234375	0.2	SCRAMBLED	0	0.558868602375696	0	0	2097.0	1
455.615234375	0.2	FACES	1	0.59792860034122	0	0	2104.0	1
456.865234375	0.2	FACES	1	0.531484979002016	0	0	2112.0	1
458.294921875	0.2	FACES	1	0.813631985472966	0	0	2120.0	1
459.76513671875	0.2	FACES	1	0.681415448383632	0	0	2128.0	1
461.18505859375	0.2	FACES	1	0.504068454228218	0	0	2136.0	1
462.5048828125	0.2	SCRAMBLED	0	0.490040384203894	0	0	2144.0	1
463.83447265625	0.2	FACES	1	0.454911348840142	0	0	2152.0	1
465.12451171875	0.2	FACES	1	0.498720014827086	0	0	2160.0	1
466.37451171875	0.2	SCRAMBLED	0	0.75740379585568	0	0	2168.0	1
467.7841796875	0.2	SCRAMBLED	0	0.567397610996522	0	0	2176.0	1
469.10400390625	0.2	SCRAMBLED	0	0.392219694415871	0	0	2184.0	1
470.4541015625	0.2	SCRAMBLED	0	0.4389949196011	0	0	2192.0	1
471.673828125	0.2	SCRAMBLED	0	0.504963130812939	0	0	2200.0	1
472.97412109375	0.2	SCRAMBLED	0	0.513758972800133	0	0	2208.0	1
474.14404296875	0.2	FACES	1	0.721609790007278	0	0	2216.0	1
475.77392578125	0.2	SCRAMBLED	0	0.699283021156589	0	0	2222.0	1
509.27099609375	0.2	SCRAMBLED	0	0.866947042934044	0	0	2226.0	1
510.9912109375	0.2	SCRAMBLED	0	0.688817659539382	0	0	2231.0	1
512.470703125	0.2	SCRAMBLED	0	0.373632516724683	0	0	2239.0	1
513.62060546875	0.2	FACES	1	0.488529938311331	0	0	2247.0	1
515.0205078125	0.2	FACES	1	0.423344720034038	0	0	2255.0	1
516.11083984375	0.2	SCRAMBLED	0	0.717065774727416	0	0	2263.0	1
517.73046875	0.2	FACES	1	0.563932097548786	0	0	2269.0	1
519.240234375	0.2	SCRAMBLED	0	0.528752049923241	0	0	2275.0	1
n/a	0.2	SCRAMBLED	0	0.623508985553599	1	0	n/a	1
522.25	0.2	SCRAMBLED	0	0.488294195257367	0	0	2282.0	1
523.68017578125	0.2	SCRAMBLED	0	0.402994449926155	0	0	2290.0	1
524.72998046875	0.2	FACES	1	0.54336570448686	0	0	2298.0	1
526.02978515625	0.2	FACES	1	0.400940678173356	0	0	2306.0	1
527.36962890625	0.2	FACES	1	0.448829419526191	0	0	2314.0	1
528.5498046875	0.2	SCRAMBLED	0	0.642855008362858	0	0	2322.0	1
529.98974609375	0.2	FACES	1	0.497289860422825	0	0	2330.0	1
531.33935546875	0.2	FACES	1	0.382934557305816	0	0	2338.0	1
532.51953125	0.2	FACES	1	0.402886690297237	0	0	2346.0	1
533.76904296875	0.2	SCRAMBLED	0	0.583950637034832	0	0	2354.0	1
535.1591796875	0.2	SCRAMBLED	0	n/a	0	1	2362.0	0
537.23876953125	0.2	SCRAMBLED	0	0.544465637507528	0	0	2364.0	1
538.5888671875	0.2	SCRAMBLED	0	0.639233741501812	0	0	2372.0	1
540.12890625	0.2	FACES	1	0.633113779377709	0	0	2378.0	1
541.57861328125	0.2	FACES	1	0.523928523672112	0	0	2386.0	1
542.77880859375	0.2	SCRAMBLED	0	0.592730782941544	0	0	2394.0	1
544.12841796875	0.2	FACES	1	0.651519546600866	0	0	2402.0	1
545.6484375	0.2	FACES	1	0.46345605354054	0	0	2408.0	1
546.84814453125	0.2	SCRAMBLED	0	0.542032745042889	0	0	2416.0	1
548.34814453125	0.2	SCRAMBLED	0	0.439970189520864	0	0	2423.0	1
549.5478515625	0.2	SCRAMBLED	0	0.417940740656377	0	0	2431.0	1
550.8681640625	0.2	FACES	1	0.623697942213767	0	0	2439.0	1
552.35791015625	0.2	SCRAMBLED	0	0.789496847050032	0	0	2447.0	1
554.017578125	0.2	FACES	1	0.408171137986756	0	0	2453.0	1
555.11767578125	0.2	SCRAMBLED	0	0.761913098650439	0	0	2461.0	1
556.7373046875	0.2	FACES	1	0.544749072497325	0	0	2467.0	1
558.13720703125	0.2	FACES	1	0.492871715632646	0	0	2475.0	1
559.52734375	0.2	FACES	1	0.428515371140747	0	0	2483.0	1
560.607421875	0.2	FACES	1	0.472516314112909	0	0	2491.0	1
561.79736328125	0.2	SCRAMBLED	0	0.798211492005976	0	0	2499.0	1
563.296875	0.2	SCRAMBLED	0	0.887091452910681	0	0	2506.0	1
565.14697265625	0.2	SCRAMBLED	0	0.608888086644583	0	0	2511.0	1
566.57666015625	0.2	FACES	1	0.65868390176729	0	0	2519.0	1
568.19677734375	0.2	FACES	1	0.803501674801737	0	0	2525.0	1
569.6962890625	0.2	SCRAMBLED	0	0.532251370313134	0	0	2532.0	1
571.08642578125	0.2	SCRAMBLED	0	0.488178285741014	0	0	2540.0	1
572.51611328125	0.2	SCRAMBLED	0	0.382894109714471	0	0	2548.0	1
573.80615234375	0.2	SCRAMBLED	0	0.498742955252055	0	0	2556.0	1
574.986328125	0.2	SCRAMBLED	0	0.432635290403596	0	0	2564.0	1
576.38623046875	0.2	FACES	1	0.553042639911837	0	0	2572.0	1
577.77587890625	0.2	FACES	1	0.387356022420136	0	0	2580.0	1
579.0556640625	0.2	FACES	1	0.43313032063179	0	0	2588.0	1
580.255859375	0.2	SCRAMBLED	0	0.667861882944635	0	0	2596.0	1
581.8056640625	0.2	FACES	1	0.607703032574136	0	0	2602.0	1
583.1552734375	0.2	SCRAMBLED	0	n/a	0	1	2610.0	0
584.42529296875	0.2	SCRAMBLED	0	0.404043370685031	0	0	2618.0	1
585.62548828125	0.2	SCRAMBLED	0	0.307857488041918	0	0	2626.0	1
586.59521484375	0.2	FACES	1	0.633084801998848	0	0	2636.0	1
588.01513671875	0.2	SCRAMBLED	0	0.413784297822531	0	0	2644.0	1
589.294921875	0.2	FACES	1	0.432818210108962	0	0	2652.0	1
590.48486328125	0.2	SCRAMBLED	0	0.477292450275854	0	0	2660.0	1
591.6650390625	0.2	FACES	1	0.632512498758842	0	0	2668.0	1
593.06494140625	0.2	SCRAMBLED	0	0.468221625033038	0	0	2676.0	1
594.384765625	0.2	FACES	1	0.652067702024397	0	0	2684.0	1
595.95458984375	0.2	FACES	1	0.423934530441329	0	0	2690.0	1
597.13427734375	0.2	FACES	1	0.472473451739461	0	0	2698.0	1
598.37451171875	0.2	SCRAMBLED	0	0.637316706756792	0	0	2706.0	1
599.84423828125	0.2	FACES	1	0.758476864430122	0	0	2714.0	1
601.50390625	0.2	FACES	1	0.463204312558446	0	0	2720.0	1
602.7041015625	0.2	SCRAMBLED	0	0.581989532525768	0	0	2728.0	1
604.07373046875	0.2	SCRAMBLED	0	n/a	0	1	2736.0	0
605.513671875	0.2	FACES	1	0.548670677820155	0	0	2744.0	1
606.87353515625	0.2	SCRAMBLED	0	0.749441959064825	0	0	2752.0	1
608.33349609375	0.2	SCRAMBLED	0	0.527366267130674	0	0	2760.0	1
609.6435546875	0.2	SCRAMBLED	0	0.633154830665262	0	0	2768.0	1
611.0634765625	0.2	SCRAMBLED	0	0.453998561393746	0	0	2776.0	1
612.35302734375	0.2	FACES	1	0.648728059068162	0	0	2784.0	1
613.86328125	0.2	SCRAMBLED	0	0.849501151397817	0	0	2790.0	1
615.40283203125	0.2	SCRAMBLED	0	0.552462790479694	0	0	2796.0	1
616.68310546875	0.2	FACES	1	0.687231449874162	0	0	2804.0	1
618.1728515625	0.2	FACES	1	0.483963284453239	0	0	2812.0	1
619.32275390625	0.2	FACES	1	0.721887489891742	0	0	2820.0	1
620.7724609375	0.2	SCRAMBLED	0	0.912722246688645	0	0	2828.0	1
622.54248046875	0.2	FACES	1	0.713435452435078	0	0	2833.0	1
624.072265625	0.2	FACES	1	0.523227935159412	0	0	2839.0	1
625.39208984375	0.2	FACES	1	n/a	0	1	2847.0	0
n/a	0.2	SCRAMBLED	0	1.00873879277242	1	0	n/a	1
628.93212890625	0.2	SCRAMBLED	0	n/a	0	1	2852.0	0
630.91162109375	0.2	SCRAMBLED	0	0.423431048477141	0	0	2854.0	1
632.20166015625	0.2	FACES	1	0.6412162771976	0	0	2862.0	1
633.5517578125	0.2	SCRAMBLED	0	0.648027772403111	0	0	2870.0	1
634.931640625	0.2	SCRAMBLED	0	n/a	0	1	2878.0	0
636.75146484375	0.2	SCRAMBLED	0	0.606641434211269	0	0	2880.0	1
638.18115234375	0.2	FACES	1	0.568219542284169	0	0	2888.0	1
639.60107421875	0.2	FACES	1	0.473278781404588	0	0	2896.0	1
640.90087890625	0.2	FACES	1	0.418161995020455	0	0	2904.0	1
642.0908203125	0.2	FACES	1	0.380577126766184	0	0	2912.0	1
643.2607421875	0.2	SCRAMBLED	0	0.503793470974415	0	0	2920.0	1
644.54052734375	0.2	SCRAMBLED	0	0.653715186772388	0	0	2928.0	1
645.98046875	0.2	FACES	1	0.647454865468717	0	0	2936.0	1
647.54052734375	0.2	FACES	1	0.481101164558822	0	0	2942.0	1
648.76025390625	0.2	SCRAMBLED	0	n/a	0	1	2950.0	0
650.76025390625	0.2	FACES	1	0.702811318926251	0	0	2952.0	1
652.150390625	0.2	FACES	1	0.636711200270838	0	0	2960.0	1
653.6298828125	0.2	FACES	1	0.653485178825576	0	0	2968.0	1
655.10009765625	0.2	SCRAMBLED	0	0.488376901527772	0	0	2976.0	1
656.3798828125	0.2	SCRAMBLED	0	0.513218061721091	0	0	2984.0	1
657.64990234375	0.2	FACES	1	0.681957265006531	0	0	2992.0	1
659.2197265625	0.2	SCRAMBLED	0	0.623699753300571	0	0	2998.0	1
660.74951171875	0.2	SCRAMBLED	0	n/a	0	1	3004.0	0
662.24951171875	0.2	SCRAMBLED	0	0.647231498170186	0	0	3011.0	1
663.7890625	0.2	FACES	1	0.638188141067985	0	0	3017.0	1
665.369140625	0.2	FACES	1	0.483961171518786	0	0	3023.0	1
666.72900390625	0.2	SCRAMBLED	0	0.619125251401783	0	0	3031.0	1
668.22900390625	0.2	FACES	1	0.767542558261994	0	0	3038.0	1
669.72900390625	0.2	FACES	1	0.604418325898223	0	0	3045.0	1
670.99853515625	0.2	SCRAMBLED	0	0.668848924924532	0	0	3053.0	1
672.6083984375	0.2	FACES	1	0.623010936848004	0	0	3059.0	1
674.1982421875	0.2	SCRAMBLED	0	0.668732713558711	0	0	3065.0	1
675.6982421875	0.2	SCRAMBLED	0	0.593680093958938	0	0	3072.0	1
677.12841796875	0.2	FACES	1	0.768476173198906	0	0	3080.0	1
678.837890625	0.2	SCRAMBLED	0	0.683123906367655	0	0	3085.0	1
680.18798828125	0.2	SCRAMBLED	0	0.957980989028329	0	0	3093.0	1
682.06787109375	0.2	SCRAMBLED	0	0.523889887165751	0	0	3098.0	1
683.337890625	0.2	SCRAMBLED	0	0.512618894035768	0	0	3106.0	1
684.65771484375	0.2	FACES	1	0.673463874414665	0	0	3114.0	1
686.03759765625	0.2	SCRAMBLED	0	0.667275694710042	0	0	3122.0	1
687.52734375	0.2	SCRAMBLED	0	0.85815753974839	0	0	3130.0	1
689.13720703125	0.2	FACES	1	0.530921429345653	0	0	3136.0	1
690.37744140625	0.2	SCRAMBLED	0	0.836744162039395	0	0	3144.0	1
691.97705078125	0.2	FACES	1	0.712552849759049	0	0	3150.0	1
693.39697265625	0.2	FACES	1	0.501411892618307	0	0	3158.0	1
694.8466796875	0.2	FACES	1	0.402222625356444	0	0	3166.0	1
696.216796875	0.2	SCRAMBLED	0	0.568975368925749	0	0	3174.0	1
697.61669921875	0.2	FACES	1	0.70878337567683	0	0	3182.0	1
699.28662109375	0.2	FACES	1	0.873516758130791	0	0	3188.0	1
700.88623046875	0.2	SCRAMBLED	0	0.593423825261198	0	0	3194.0	1
702.26611328125	0.2	SCRAMBLED	0	0.643545032205111	0	0	3202.0	1
703.8564453125	0.2	FACES	1	0.597979310755363	0	0	3208.0	1
705.236328125	0.2	SCRAMBLED	0	0.784740934683214	0	0	3216.0	1
706.92578125	0.2	FACES	1	0.513436599456327	0	0	3221.0	1
708.39599609375	0.2	SCRAMBLED	0	0.857190419716062	0	0	3229.0	1
710.15576171875	0.2	FACES	1	0.702144537356617	0	0	3234.0	1
711.69580078125	0.2	FACES	1	0.438965036679292	0	0	3240.0	1
712.845703125	0.2	SCRAMBLED	0	n/a	0	1	3248.0	0
714.67529296875	0.2	FACES	1	0.537326637546357	0	0	3250.0	1
715.9951171875	0.2	FACES	1	0.457450793542193	0	0	3258.0	1
717.4150390625	0.2	FACES	1	0.543246776493106	0	0	3266.0	1
718.8349609375	0.2	FACES	1	0.737016096632942	0	0	3274.0	1
720.3447265625	0.2	FACES	1	0.508540026061382	0	0	3280.0	1
721.56494140625	0.2	FACES	1	0.401905081575933	0	0	3288.0	1
n/a	0.2	FACES	1	0.461941985475278	1	0	n/a	1
n/a	0.2	SCRAMBLED	0	0.49323664950316	1	0	n/a	1
n/a	0.2	FACES	1	0.468051081082194	1	0	n/a	1
766.6015625	0.2	FACES	1	0.383944539711592	0	0	3296.0	1
767.64111328125	0.2	SCRAMBLED	0	0.517890060426907	0	0	3304.0	1
768.97119140625	0.2	FACES	1	0.583589627184665	0	0	3312.0	1
770.2412109375	0.2	SCRAMBLED	0	0.532482887500009	0	0	3320.0	1
771.62109375	0.2	FACES	1	0.413301039653561	0	0	3328.0	1
772.720703125	0.2	FACES	1	0.366165106465814	0	0	3336.0	1
773.82080078125	0.2	FACES	1	0.307030123494769	0	0	3344.0	1
774.79052734375	0.2	FACES	1	0.352807742031473	0	0	3354.0	1
775.91064453125	0.2	SCRAMBLED	0	0.417733974980365	0	0	3362.0	1
777.16064453125	0.2	SCRAMBLED	0	0.583760171135509	0	0	3370.0	1
n/a	0.2	FACES	1	0.590443079220677	1	0	n/a	1
n/a	0.2	SCRAMBLED	0	0.822199026903036	1	0	n/a	1
781.66015625	0.2	SCRAMBLED	0	0.59960234583923	0	0	3376.0	1
782.91015625	0.2	FACES	1	0.541782211451391	0	0	3384.0	1
784.41015625	0.2	SCRAMBLED	0	0.788600359380325	0	0	3391.0	1
786.1201171875	0.2	SCRAMBLED	0	0.41850429031274	0	0	3396.0	1
787.4697265625	0.2	FACES	1	0.448096231461932	0	0	3404.0	1
788.69970703125	0.2	SCRAMBLED	0	0.514098853311225	0	0	3412.0	1
789.8994140625	0.2	SCRAMBLED	0	0.412974440442667	0	0	3420.0	1
791.1396484375	0.2	SCRAMBLED	0	0.369874814703508	0	0	3428.0	1
792.439453125	0.2	SCRAMBLED	0	0.343605009344174	0	0	3436.0	1
793.66943359375	0.2	SCRAMBLED	0	0.473398614942198	0	0	3444.0	1
794.869140625	0.2	SCRAMBLED	0	0.381260509959247	0	0	3452.0	1
796.18896484375	0.2	FACES	1	0.478035599314353	0	0	3460.0	1
797.5087890625	0.2	SCRAMBLED	0	0.635720234269684	0	0	3468.0	1
798.80908203125	0.2	SCRAMBLED	0	0.67678087879267	0	0	3476.0	1
800.12890625	0.2	FACES	1	0.492600656398281	0	0	3484.0	1
801.3486328125	0.2	SCRAMBLED	0	0.797325870853456	0	0	3492.0	1
802.8984375	0.2	FACES	1	0.482234602673088	0	0	3498.0	1
804.30859375	0.2	FACES	1	0.508074275060608	0	0	3506.0	1
805.7783203125	0.2	FACES	1	0.421993951576042	0	0	3514.0	1
807.16845703125	0.2	SCRAMBLED	0	0.439622460969986	0	0	3522.0	1
808.29833984375	0.2	FACES	1	0.602555020044747	0	0	3530.0	1
809.71826171875	0.2	SCRAMBLED	0	0.558356064980217	0	0	3538.0	1
811.13818359375	0.2	SCRAMBLED	0	n/a	0	1	3546.0	0
812.41796875	0.2	SCRAMBLED	0	0.325185658974078	0	0	3554.0	1
813.53759765625	0.2	FACES	1	0.514958817409024	0	0	3562.0	1
814.81787109375	0.2	FACES	1	0.478775729875451	0	0	3570.0	1
816.03759765625	0.2	SCRAMBLED	0	0.462576771189561	0	0	3578.0	1
817.45751953125	0.2	FACES	1	0.70343463442714	0	0	3586.0	1
819.02734375	0.2	SCRAMBLED	0	0.469203535601991	0	0	3592.0	1
820.45703125	0.2	SCRAMBLED	0	0.348882514536854	0	0	3600.0	1
821.75732421875	0.2	SCRAMBLED	0	0.458946147049573	0	0	3608.0	1
823.14697265625	0.2	SCRAMBLED	0	0.528679908322374	0	0	3616.0	1
824.5966796875	0.2	SCRAMBLED	0	0.863487566440199	0	0	3624.0	1
826.376953125	0.2	SCRAMBLED	0	0.978269078510493	0	0	3629.0	1
828.03662109375	0.2	FACES	1	n/a	0	1	3635.0	0
829.8466796875	0.2	SCRAMBLED	0	n/a	0	1	3637.0	0
831.9365234375	0.2	FACES	1	0.497155840043888	0	0	3639.0	1
833.08642578125	0.2	SCRAMBLED	0	0.637441973552086	0	0	3647.0	1
834.4560546875	0.2	FACES	1	0.575847535519642	0	0	3655.0	1
835.7158203125	0.2	FACES	1	0.747024460832108	0	0	3663.0	1
837.35595703125	0.2	SCRAMBLED	0	0.453786966155349	0	0	3669.0	1
838.77587890625	0.2	SCRAMBLED	0	0.448607863313555	0	0	3677.0	1
839.8759765625	0.2	SCRAMBLED	0	0.476264658856962	0	0	3685.0	1
841.255859375	0.2	FACES	1	0.45329978396785	0	0	3693.0	1
842.67529296875	0.2	SCRAMBLED	0	0.608082153285068	0	0	3701.0	1
844.115234375	0.2	FACES	1	0.538977140771749	0	0	3709.0	1
845.4951171875	0.2	SCRAMBLED	0	0.812753004968727	0	0	3717.0	1
n/a	0.2	SCRAMBLED	0	n/a	1	1	n/a	0
849.2451171875	0.2	SCRAMBLED	0	0.433241702432497	0	0	3720.0	1
850.3349609375	0.2	FACES	1	0.661199500502335	0	0	3728.0	1
851.884765625	0.2	FACES	1	0.5689750670781	0	0	3734.0	1
853.40478515625	0.2	FACES	1	0.352755522379084	0	0	3740.0	1
854.53466796875	0.2	FACES	1	0.466451590118595	0	0	3748.0	1
855.88427734375	0.2	FACES	1	0.358454406960846	0	0	3756.0	1
857.08447265625	0.2	SCRAMBLED	0	0.494285872108776	0	0	3764.0	1
858.33447265625	0.2	FACES	1	0.441243986816517	0	0	3772.0	1
859.6240234375	0.2	FACES	1	0.443907792771824	0	0	3780.0	1
860.80419921875	0.2	FACES	1	0.576829747936245	0	0	3788.0	1
862.1240234375	0.2	SCRAMBLED	0	0.552345069875628	0	0	3796.0	1
863.59375	0.2	SCRAMBLED	0	0.468501739698695	0	0	3804.0	1
864.7939453125	0.2	FACES	1	0.646268000309647	0	0	3812.0	1
866.34375	0.2	FACES	1	0.663075182112152	0	0	3818.0	1
867.84375	0.2	SCRAMBLED	0	0.604066069631699	0	0	3825.0	1
869.33349609375	0.2	SCRAMBLED	0	0.433755145370924	0	0	3833.0	1
870.5634765625	0.2	FACES	1	0.862507165110401	0	0	3841.0	1
872.08349609375	0.2	FACES	1	0.98229240650835	0	0	3847.0	1
873.98291015625	0.2	FACES	1	0.492278283054475	0	0	3852.0	1
875.2529296875	0.2	FACES	1	0.487991140165832	0	0	3860.0	1
876.623046875	0.2	FACES	1	0.369028433751737	0	0	3868.0	1
877.65283203125	0.2	SCRAMBLED	0	0.577681260298959	0	0	3876.0	1
879.02294921875	0.2	FACES	1	0.478513122376171	0	0	3884.0	1
880.22265625	0.2	FACES	1	0.417415525657816	0	0	3892.0	1
881.6025390625	0.2	FACES	1	0.433056971640326	0	0	3900.0	1
882.80224609375	0.2	FACES	1	0.457746604288332	0	0	3908.0	1
884.0224609375	0.2	FACES	1	0.501627411876143	0	0	3916.0	1
885.26220703125	0.2	FACES	1	0.647728641331923	0	0	3924.0	1
886.67236328125	0.2	SCRAMBLED	0	0.547499508742476	0	0	3932.0	1
888.1318359375	0.2	SCRAMBLED	0	n/a	0	1	3940.0	0
890.0419921875	0.2	FACES	1	0.553030867851703	0	0	3942.0	1
891.49169921875	0.2	SCRAMBLED	0	n/a	0	1	3950.0	0
893.00146484375	0.2	FACES	1	0.676615466253679	0	0	3956.0	1
894.53173828125	0.2	FACES	1	0.402259148928351	0	0	3962.0	1
895.6513671875	0.2	SCRAMBLED	0	0.488550463955107	0	0	3970.0	1
897.021484375	0.2	FACES	1	0.616938968508293	0	0	3978.0	1
898.47119140625	0.2	SCRAMBLED	0	0.823973287685476	0	0	3986.0	1
900.201171875	0.2	SCRAMBLED	0	0.407792017275824	0	0	3991.0	1
901.47119140625	0.2	FACES	1	0.633573191577852	0	0	3999.0	1
902.95068359375	0.2	SCRAMBLED	0	0.669286000395005	0	0	4007.0	1
904.37060546875	0.2	SCRAMBLED	0	0.95202825053002	0	0	4015.0	1
906.16064453125	0.2	SCRAMBLED	0	0.43402228058585	0	0	4020.0	1
907.5107421875	0.2	SCRAMBLED	0	0.438900139423822	0	0	4028.0	1
908.740234375	0.2	FACES	1	0.474584876404151	0	0	4036.0	1
909.91015625	0.2	SCRAMBLED	0	0.592529148677386	0	0	4044.0	1
911.46044921875	0.2	SCRAMBLED	0	0.718280409872932	0	0	4050.0	1
913.0302734375	0.2	FACES	1	0.503041568352273	0	0	4056.0	1
914.2998046875	0.2	FACES	1	n/a	0	1	4064.0	0
916.10009765625	0.2	SCRAMBLED	0	0.484617388419792	0	0	4066.0	1
917.2998046875	0.2	FACES	1	0.602308108625948	0	0	4074.0	1
918.6796875	0.2	SCRAMBLED	0	0.553289853178285	0	0	4082.0	1
920.1494140625	0.2	SCRAMBLED	0	0.60812350642027	0	0	4090.0	1
921.41943359375	0.2	SCRAMBLED	0	0.507952932284752	0	0	4098.0	1
922.689453125	0.2	SCRAMBLED	0	0.647792029350057	0	0	4106.0	1
924.20947265625	0.2	SCRAMBLED	0	0.488570385902676	0	0	4112.0	1
925.46923828125	0.2	SCRAMBLED	0	0.70354480883816	0	0	4120.0	1
926.8388671875	0.2	FACES	1	0.731290649451694	0	0	4128.0	1
928.35888671875	0.2	FACES	1	0.507068518522829	0	0	4134.0	1
929.57861328125	0.2	SCRAMBLED	0	0.668021862225032	0	0	4142.0	1
931.07861328125	0.2	SCRAMBLED	0	0.444771680889971	0	0	4149.0	1
932.478515625	0.2	FACES	1	0.49355117480718	0	0	4157.0	1
933.87841796875	0.2	FACES	1	0.623358363551233	0	0	4165.0	1
935.17822265625	0.2	SCRAMBLED	0	0.552233386227272	0	0	4173.0	1
936.66845703125	0.2	SCRAMBLED	0	0.764995265518337	0	0	4181.0	1
938.318359375	0.2	FACES	1	0.638827152650265	0	0	4187.0	1
939.91796875	0.2	SCRAMBLED	0	0.558578224887242	0	0	4193.0	1
941.2880859375	0.2	SCRAMBLED	0	0.929100804755763	0	0	4201.0	1
943.0078125	0.2	SCRAMBLED	0	0.424277429428912	0	0	4206.0	1
944.337890625	0.2	FACES	1	0.473076543445131	0	0	4214.0	1
945.53759765625	0.2	FACES	1	0.405961310972998	0	0	4222.0	1
946.8876953125	0.2	SCRAMBLED	0	0.523764620370457	0	0	4230.0	1
948.1572265625	0.2	FACES	1	0.571538659596627	0	0	4238.0	1
949.5771484375	0.2	SCRAMBLED	0	n/a	0	1	4246.0	0
950.92724609375	0.2	SCRAMBLED	0	0.669229856721358	0	0	4254.0	1
952.4072265625	0.2	FACES	1	0.602980927149474	0	0	4262.0	1
953.7568359375	0.2	FACES	1	0.471662990664299	0	0	4270.0	1
955.1669921875	0.2	FACES	1	0.459066282434833	0	0	4278.0	1
956.57666015625	0.2	FACES	1	0.492520364909979	0	0	4286.0	1
957.81689453125	0.2	FACES	1	0.417188536186586	0	0	4294.0	1
958.98681640625	0.2	FACES	1	0.40226609142519	0	0	4302.0	1
960.16650390625	0.2	FACES	1	0.37796071089906	0	0	4310.0	1
961.4462890625	0.2	FACES	1	0.433946214965545	0	0	4318.0	1
962.81640625	0.2	SCRAMBLED	0	0.493955952572833	0	0	4326.0	1
964.15625	0.2	FACES	1	0.627344866129533	0	0	4334.0	1
965.5361328125	0.2	FACES	1	0.481162137794854	0	0	4342.0	1
966.755859375	0.2	SCRAMBLED	0	0.602279131246178	0	0	4350.0	1
968.0859375	0.2	FACES	1	0.40706335692721	0	0	4358.0	1
