onset	duration	trial_type	trial_type_id	response_time	bad_epoch	outliers	direction	name_direction	event_num	response_accuracy
50.24609375	0.2	RANDOM	0	n/a	0	1	0	NONE	1.0	0
52.166015625	0.2	COHERENT	1	n/a	0	1	0	RIGHT	2.0	0
53.9658203125	0.2	COHERENT	1	n/a	0	1	180	LEFT	3.0	0
54.85595703125	0.2	COHERENT	1	n/a	0	1	180	LEFT	6.0	0
56.95556640625	0.2	RANDOM	0	1.00072322709002	0	0	0	NONE	7.0	1
n/a	0.2	RANDOM	0	n/a	1	1	0	NONE	n/a	0
60.4052734375	0.2	RANDOM	0	n/a	0	1	0	NONE	9.0	0
62.47509765625	0.2	COHERENT	1	n/a	0	1	0	RIGHT	10.0	0
64.34521484375	0.2	COHERENT	1	0.704111075124274	0	0	0	RIGHT	11.0	1
65.865234375	0.2	RANDOM	0	n/a	0	1	0	NONE	14.0	0
67.64501953125	0.2	COHERENT	1	n/a	0	1	180	LEFT	15.0	0
69.5947265625	0.2	RANDOM	0	n/a	0	1	0	NONE	16.0	0
70.4345703125	0.2	COHERENT	1	n/a	0	1	180	LEFT	21.0	0
72.2646484375	0.2	RANDOM	0	n/a	0	1	0	NONE	24.0	0
74.20458984375	0.2	COHERENT	1	n/a	0	1	0	RIGHT	26.0	0
n/a	0.2	RANDOM	0	n/a	1	1	0	NONE	n/a	0
77.82421875	0.2	RANDOM	0	n/a	0	1	0	NONE	27.0	0
n/a	0.2	COHERENT	1	n/a	1	1	0	RIGHT	n/a	0
81.14404296875	0.2	RANDOM	0	n/a	0	1	0	NONE	30.0	0
83.173828125	0.2	COHERENT	1	0.774693330282389	0	0	0	RIGHT	31.0	1
84.763671875	0.2	RANDOM	0	n/a	0	1	0	NONE	34.0	0
86.84326171875	0.2	RANDOM	0	1.14395116828655	0	0	0	NONE	35.0	1
n/a	0.2	COHERENT	1	n/a	1	1	180	LEFT	n/a	0
n/a	0.2	RANDOM	0	n/a	1	1	0	NONE	n/a	0
92.23291015625	0.2	COHERENT	1	n/a	0	1	0	RIGHT	37.0	0
94.203125	0.2	RANDOM	0	n/a	0	1	0	NONE	38.0	0
96.1728515625	0.2	COHERENT	1	n/a	0	1	180	LEFT	39.0	0
98.25244140625	0.2	COHERENT	1	n/a	0	1	0	RIGHT	40.0	0
100.22265625	0.2	RANDOM	0	n/a	0	1	0	NONE	41.0	0
102.1923828125	0.2	COHERENT	1	n/a	0	1	180	LEFT	42.0	0
104.072265625	0.2	RANDOM	0	n/a	0	1	0	NONE	43.0	0
105.9619140625	0.2	COHERENT	1	n/a	0	1	180	LEFT	44.0	0
107.91162109375	0.2	COHERENT	1	n/a	0	1	0	RIGHT	46.0	0
109.78173828125	0.2	RANDOM	0	n/a	0	1	0	NONE	48.0	0
111.861328125	0.2	RANDOM	0	n/a	0	1	0	NONE	49.0	0
113.96142578125	0.2	RANDOM	0	n/a	0	1	0	NONE	50.0	0
115.88134765625	0.2	COHERENT	1	1.03907358111246	0	0	180	LEFT	52.0	1
117.5712890625	0.2	COHERENT	1	n/a	0	1	180	LEFT	54.0	0
119.4912109375	0.2	RANDOM	0	n/a	0	1	0	NONE	55.0	0
121.4208984375	0.2	COHERENT	1	n/a	0	1	0	RIGHT	56.0	0
123.49072265625	0.2	RANDOM	0	n/a	0	1	0	NONE	58.0	0
125.4404296875	0.2	RANDOM	0	n/a	0	1	0	NONE	59.0	0
127.240234375	0.2	COHERENT	1	n/a	0	1	0	RIGHT	60.0	1
128.23046875	0.2	COHERENT	1	1.12449678215307	0	0	0	RIGHT	63.0	1
130.22998046875	0.2	COHERENT	1	n/a	0	1	0	RIGHT	65.0	0
132.14990234375	0.2	COHERENT	1	n/a	0	1	180	LEFT	66.0	0
134.15966796875	0.2	COHERENT	1	0.83513350271096	0	0	180	LEFT	67.0	1
135.76953125	0.2	RANDOM	0	0.834927340730246	0	0	0	NONE	70.0	1
137.26953125	0.2	COHERENT	1	0.80774655901223	0	0	180	LEFT	74.0	1
138.91943359375	0.2	COHERENT	1	n/a	0	1	0	RIGHT	77.0	0
140.54931640625	0.2	COHERENT	1	n/a	0	1	0	RIGHT	80.0	0
142.51904296875	0.2	COHERENT	1	1.1351495911922	0	0	180	LEFT	81.0	1
144.4892578125	0.2	COHERENT	1	1.19370804505616	0	0	180	LEFT	83.0	1
146.31884765625	0.2	RANDOM	0	n/a	0	1	0	NONE	85.0	0
148.12890625	0.2	RANDOM	0	n/a	0	1	0	NONE	86.0	0
150.1787109375	0.2	COHERENT	1	0.948801498613648	0	0	180	LEFT	87.0	1
151.94873046875	0.2	RANDOM	0	n/a	0	1	0	NONE	90.0	0
153.62841796875	0.2	COHERENT	1	0.883290888516058	0	0	180	LEFT	92.0	1
155.34814453125	0.2	COHERENT	1	n/a	0	1	0	RIGHT	95.0	0
156.91796875	0.2	COHERENT	1	n/a	0	1	180	LEFT	98.0	0
158.41796875	0.2	COHERENT	1	1.08797230487016	0	0	0	RIGHT	102.0	1
160.23779296875	0.2	RANDOM	0	n/a	0	1	0	NONE	104.0	0
162.09765625	0.2	RANDOM	0	n/a	0	1	0	NONE	105.0	0
164.08740234375	0.2	RANDOM	0	n/a	0	1	0	NONE	107.0	0
166.107421875	0.2	RANDOM	0	n/a	0	1	0	NONE	108.0	0
168.05712890625	0.2	COHERENT	1	n/a	0	1	180	LEFT	109.0	0
169.77734375	0.2	COHERENT	1	n/a	0	1	0	RIGHT	111.0	0
171.796875	0.2	RANDOM	0	n/a	0	1	0	NONE	112.0	0
173.4267578125	0.2	RANDOM	0	n/a	0	1	0	NONE	114.0	0
174.89697265625	0.2	RANDOM	0	n/a	0	1	0	NONE	118.0	0
176.74658203125	0.2	RANDOM	0	n/a	0	1	0	NONE	119.0	0
178.5966796875	0.2	RANDOM	0	n/a	0	1	0	NONE	121.0	0
n/a	0.2	RANDOM	0	n/a	1	1	0	NONE	n/a	0
n/a	0.2	RANDOM	0	n/a	1	1	0	NONE	n/a	0
184.25634765625	0.2	COHERENT	1	n/a	0	1	0	RIGHT	123.0	0
186.10595703125	0.2	RANDOM	0	n/a	0	1	0	NONE	124.0	0
187.1259765625	0.2	COHERENT	1	1.04910760236635	0	0	180	LEFT	128.0	1
189.0556640625	0.2	COHERENT	1	1.04377093502444	0	0	0	RIGHT	130.0	1
190.94580078125	0.2	COHERENT	1	0.958389087119031	0	0	180	LEFT	132.0	1
192.70556640625	0.2	COHERENT	1	n/a	0	1	180	LEFT	135.0	0
194.275390625	0.2	COHERENT	1	n/a	0	1	180	LEFT	138.0	0
196.21533203125	0.2	COHERENT	1	n/a	0	1	0	RIGHT	139.0	0
197.46533203125	0.2	COHERENT	1	n/a	0	1	180	LEFT	143.0	0
199.044921875	0.2	RANDOM	0	n/a	0	1	0	NONE	146.0	0
200.71484375	0.2	COHERENT	1	n/a	0	1	180	LEFT	149.0	0
202.5048828125	0.2	RANDOM	0	n/a	0	1	0	NONE	151.0	0
203.984375	0.2	RANDOM	0	0.942204013427727	0	0	0	NONE	155.0	1
205.5546875	0.2	COHERENT	1	n/a	0	1	180	LEFT	158.0	0
207.47412109375	0.2	RANDOM	0	n/a	0	1	0	NONE	160.0	0
209.13427734375	0.2	RANDOM	0	n/a	0	1	0	NONE	163.0	0
211.154296875	0.2	COHERENT	1	0.963962704905498	0	0	180	LEFT	164.0	1
212.97412109375	0.2	COHERENT	1	n/a	0	1	180	LEFT	167.0	0
214.7939453125	0.2	RANDOM	0	n/a	0	1	0	NONE	168.0	0
216.3134765625	0.2	RANDOM	0	0.834239731669186	0	0	0	NONE	171.0	1
217.8935546875	0.2	COHERENT	1	n/a	0	1	180	LEFT	174.0	0
219.46337890625	0.2	RANDOM	0	0.834172721480172	0	0	0	NONE	177.0	1
220.943359375	0.2	COHERENT	1	n/a	0	1	0	RIGHT	181.0	0
222.55322265625	0.2	RANDOM	0	n/a	0	1	0	NONE	184.0	0
224.4130859375	0.2	COHERENT	1	n/a	0	1	0	RIGHT	187.0	0
226.47314453125	0.2	COHERENT	1	1.12909271523768	0	0	180	LEFT	188.0	1
228.3330078125	0.2	COHERENT	1	n/a	0	1	180	LEFT	190.0	0
230.32275390625	0.2	COHERENT	1	0.635473021004145	0	0	0	RIGHT	191.0	1
231.7724609375	0.2	COHERENT	1	0.953556505436609	0	0	0	RIGHT	195.0	1
233.5625	0.2	RANDOM	0	n/a	0	1	0	NONE	198.0	0
235.4423828125	0.2	COHERENT	1	n/a	0	1	180	LEFT	200.0	0
237.48193359375	0.2	RANDOM	0	n/a	0	1	0	NONE	202.0	0
239.01220703125	0.2	COHERENT	1	0.882753297761155	0	0	0	RIGHT	205.0	1
240.69189453125	0.2	COHERENT	1	n/a	0	1	0	RIGHT	208.0	0
242.4619140625	0.2	RANDOM	0	n/a	0	1	0	NONE	210.0	0
244.51171875	0.2	RANDOM	0	n/a	0	1	0	NONE	212.0	0
246.6015625	0.2	RANDOM	0	n/a	0	1	0	NONE	213.0	0
248.50146484375	0.2	RANDOM	0	n/a	0	1	0	NONE	215.0	0
250.37109375	0.2	RANDOM	0	n/a	0	1	0	NONE	216.0	0
252.47119140625	0.2	COHERENT	1	0.979966971824979	0	0	0	RIGHT	217.0	1
254.12060546875	0.2	RANDOM	0	0.922678391236332	0	0	0	NONE	220.0	1
n/a	0.2	RANDOM	0	n/a	1	1	0	NONE	n/a	0
257.6904296875	0.2	COHERENT	1	n/a	0	1	0	RIGHT	222.0	0
259.68017578125	0.2	RANDOM	0	n/a	0	1	0	NONE	223.0	0
261.46044921875	0.2	COHERENT	1	n/a	0	1	0	RIGHT	224.0	0
263.56005859375	0.2	COHERENT	1	n/a	0	1	0	RIGHT	225.0	0
265.39990234375	0.2	RANDOM	0	n/a	0	1	0	NONE	226.0	0
267.4697265625	0.2	COHERENT	1	n/a	0	1	0	RIGHT	227.0	0
268.94970703125	0.2	RANDOM	0	0.669852266680209	0	0	0	NONE	231.0	1
270.48974609375	0.2	RANDOM	0	n/a	0	1	0	NONE	234.0	0
272.189453125	0.2	COHERENT	1	n/a	0	1	180	LEFT	237.0	0
274.2392578125	0.2	RANDOM	0	n/a	0	1	0	NONE	238.0	0
276.08935546875	0.2	COHERENT	1	n/a	0	1	180	LEFT	240.0	0
277.6591796875	0.2	COHERENT	1	0.904567227368716	0	0	0	RIGHT	243.0	1
279.38916015625	0.2	RANDOM	0	n/a	0	1	0	NONE	246.0	0
281.22900390625	0.2	RANDOM	0	n/a	0	1	0	NONE	248.0	0
n/a	0.2	COHERENT	1	n/a	1	1	0	RIGHT	n/a	0
285.2783203125	0.2	COHERENT	1	n/a	0	1	0	RIGHT	249.0	0
286.71826171875	0.2	RANDOM	0	n/a	0	1	0	NONE	253.0	0
288.01806640625	0.2	RANDOM	0	n/a	0	1	0	NONE	257.0	0
290.0380859375	0.2	RANDOM	0	0.704753407030694	0	0	0	NONE	258.0	1
291.64794921875	0.2	COHERENT	1	n/a	0	1	0	RIGHT	261.0	0
293.11767578125	0.2	RANDOM	0	0.788688800756063	0	0	0	NONE	265.0	1
294.587890625	0.2	RANDOM	0	0.753444459570346	0	0	0	NONE	269.0	1
295.98779296875	0.2	RANDOM	0	0.978221688421399	0	0	0	NONE	273.0	1
297.78759765625	0.2	RANDOM	0	0.933750164885168	0	0	0	NONE	276.0	1
299.37744140625	0.2	RANDOM	0	n/a	0	1	0	NONE	279.0	0
301.3271484375	0.2	COHERENT	1	n/a	0	1	180	LEFT	280.0	0
303.09716796875	0.2	COHERENT	1	1.06308918784543	0	0	180	LEFT	282.0	1
304.76708984375	0.2	RANDOM	0	n/a	0	1	0	NONE	284.0	0
306.27685546875	0.2	RANDOM	0	0.827978202974009	0	0	0	NONE	287.0	1
307.716796875	0.2	RANDOM	0	n/a	0	1	0	NONE	291.0	0
309.546875	0.2	RANDOM	0	n/a	0	1	0	NONE	294.0	0
311.49658203125	0.2	COHERENT	1	0.779270548810018	0	0	0	RIGHT	295.0	1
312.96630859375	0.2	COHERENT	1	n/a	0	1	180	LEFT	299.0	0
315.00634765625	0.2	COHERENT	1	n/a	0	1	180	LEFT	300.0	0
n/a	0.2	RANDOM	0	n/a	1	1	0	NONE	n/a	0
n/a	0.2	COHERENT	1	n/a	1	1	0	RIGHT	n/a	0
n/a	0.2	RANDOM	0	n/a	1	1	0	NONE	n/a	0
n/a	0.2	COHERENT	1	n/a	1	1	0	RIGHT	n/a	0
n/a	0.2	RANDOM	0	n/a	1	1	0	NONE	n/a	0
n/a	0.2	RANDOM	0	n/a	1	1	0	NONE	n/a	0
n/a	0.2	RANDOM	0	n/a	1	1	0	NONE	n/a	0
n/a	0.2	RANDOM	0	n/a	1	1	0	NONE	n/a	0
n/a	0.2	RANDOM	0	n/a	1	1	0	NONE	n/a	0
339.9541015625	0.2	RANDOM	0	0.76234081684197	0	0	0	NONE	304.0	1
341.54443359375	0.2	COHERENT	1	1.10428053242322	0	0	180	LEFT	307.0	1
343.34423828125	0.2	RANDOM	0	n/a	0	1	0	NONE	309.0	0
345.06396484375	0.2	RANDOM	0	n/a	0	1	0	NONE	312.0	0
346.99365234375	0.2	COHERENT	1	n/a	0	1	180	LEFT	313.0	0
348.763671875	0.2	RANDOM	0	n/a	0	1	0	NONE	315.0	0
n/a	0.2	COHERENT	1	n/a	1	1	180	LEFT	n/a	0
352.783203125	0.2	COHERENT	1	n/a	0	1	0	RIGHT	316.0	0
354.11328125	0.2	COHERENT	1	n/a	0	1	0	RIGHT	320.0	0
355.953125	0.2	RANDOM	0	n/a	0	1	0	NONE	321.0	0
357.68310546875	0.2	COHERENT	1	n/a	0	1	180	LEFT	323.0	0
359.60302734375	0.2	RANDOM	0	n/a	0	1	0	NONE	325.0	0
361.5927734375	0.2	COHERENT	1	n/a	0	1	0	RIGHT	327.0	0
363.32275390625	0.2	RANDOM	0	0.70467371923769	0	0	0	NONE	330.0	1
364.822265625	0.2	RANDOM	0	0.979411270208402	0	0	0	NONE	334.0	1
366.662109375	0.2	COHERENT	1	n/a	0	1	0	RIGHT	337.0	0
368.39208984375	0.2	RANDOM	0	n/a	0	1	0	NONE	339.0	0
370.26220703125	0.2	COHERENT	1	n/a	0	1	180	LEFT	340.0	0
371.7119140625	0.2	COHERENT	1	n/a	0	1	180	LEFT	344.0	0
373.51171875	0.2	RANDOM	0	n/a	0	1	0	NONE	345.0	0
374.73193359375	0.2	COHERENT	1	n/a	0	1	180	LEFT	349.0	0
376.2314453125	0.2	COHERENT	1	n/a	0	1	180	LEFT	353.0	0
378.33154296875	0.2	COHERENT	1	n/a	0	1	180	LEFT	354.0	0
380.22119140625	0.2	RANDOM	0	n/a	0	1	0	NONE	355.0	0
381.9013671875	0.2	RANDOM	0	n/a	0	1	0	NONE	357.0	0
383.81103515625	0.2	COHERENT	1	n/a	0	1	180	LEFT	358.0	0
385.2607421875	0.2	COHERENT	1	n/a	0	1	0	RIGHT	362.0	0
387.07080078125	0.2	RANDOM	0	n/a	0	1	0	NONE	365.0	0
389.04052734375	0.2	RANDOM	0	n/a	0	1	0	NONE	367.0	0
390.9404296875	0.2	RANDOM	0	n/a	0	1	0	NONE	368.0	0
392.8505859375	0.2	COHERENT	1	0.968510644206617	0	0	180	LEFT	369.0	1
394.47998046875	0.2	COHERENT	1	n/a	0	1	0	RIGHT	372.0	0
396.0703125	0.2	COHERENT	1	n/a	0	1	0	RIGHT	375.0	0
397.47998046875	0.2	COHERENT	1	n/a	0	1	180	LEFT	379.0	0
399.02978515625	0.2	RANDOM	0	0.75802016885973	0	0	0	NONE	382.0	1
400.61962890625	0.2	COHERENT	1	n/a	0	1	0	RIGHT	385.0	0
402.1396484375	0.2	RANDOM	0	0.968439106301048	0	0	0	NONE	388.0	1
403.95947265625	0.2	RANDOM	0	n/a	0	1	0	NONE	391.0	0
405.78955078125	0.2	RANDOM	0	n/a	0	1	0	NONE	393.0	0
407.7392578125	0.2	COHERENT	1	n/a	0	1	0	RIGHT	394.0	0
409.42919921875	0.2	RANDOM	0	0.834485737545037	0	0	0	NONE	397.0	1
411.02880859375	0.2	COHERENT	1	n/a	0	1	180	LEFT	400.0	0
412.708984375	0.2	RANDOM	0	1.12283269578074	0	0	0	NONE	402.0	1
414.5087890625	0.2	RANDOM	0	0.784091056584657	0	0	0	NONE	404.0	1
416.19873046875	0.2	COHERENT	1	n/a	0	1	0	RIGHT	407.0	0
417.478515625	0.2	RANDOM	0	n/a	0	1	0	NONE	411.0	0
418.84814453125	0.2	RANDOM	0	n/a	0	1	0	NONE	415.0	0
420.3984375	0.2	RANDOM	0	0.774145476706508	0	0	0	NONE	418.0	1
421.84814453125	0.2	COHERENT	1	n/a	0	1	0	RIGHT	422.0	0
423.51806640625	0.2	COHERENT	1	n/a	0	1	0	RIGHT	425.0	0
425.2080078125	0.2	COHERENT	1	n/a	0	1	180	LEFT	428.0	0
427.03759765625	0.2	RANDOM	0	n/a	0	1	0	NONE	430.0	0
429.1376953125	0.2	COHERENT	1	n/a	0	1	180	LEFT	431.0	0
430.8076171875	0.2	COHERENT	1	n/a	0	1	0	RIGHT	434.0	0
432.45751953125	0.2	COHERENT	1	n/a	0	1	180	LEFT	437.0	0
434.22705078125	0.2	COHERENT	1	n/a	0	1	0	RIGHT	439.0	0
435.796875	0.2	COHERENT	1	n/a	0	1	180	LEFT	442.0	0
437.31689453125	0.2	COHERENT	1	0.953058758579573	0	0	0	RIGHT	445.0	1
439.13671875	0.2	RANDOM	0	n/a	0	1	0	NONE	448.0	0
440.78662109375	0.2	RANDOM	0	n/a	0	1	0	NONE	450.0	0
442.736328125	0.2	RANDOM	0	0.699087725694881	0	0	0	NONE	451.0	1
444.236328125	0.2	RANDOM	0	1.02026062134064	0	0	0	NONE	455.0	1
446.05615234375	0.2	RANDOM	0	n/a	0	1	0	NONE	457.0	0
447.88623046875	0.2	RANDOM	0	n/a	0	1	0	NONE	458.0	0
449.47607421875	0.2	RANDOM	0	n/a	0	1	0	NONE	461.0	0
450.74609375	0.2	COHERENT	1	0.86867089514999	0	0	180	LEFT	465.0	1
452.22607421875	0.2	RANDOM	0	n/a	0	1	0	NONE	469.0	0
454.15576171875	0.2	COHERENT	1	n/a	0	1	180	LEFT	470.0	0
455.7255859375	0.2	COHERENT	1	1.00471757770811	0	0	0	RIGHT	473.0	1
457.57568359375	0.2	RANDOM	0	n/a	0	1	0	NONE	475.0	0
459.58544921875	0.2	COHERENT	1	0.990251526669454	0	0	0	RIGHT	476.0	1
461.294921875	0.2	RANDOM	0	n/a	0	1	0	NONE	479.0	0
462.96484375	0.2	RANDOM	0	n/a	0	1	0	NONE	481.0	0
464.96484375	0.2	RANDOM	0	0.910311690953677	0	0	0	NONE	482.0	1
466.5546875	0.2	RANDOM	0	0.823397362273681	0	0	0	NONE	485.0	1
468.0048828125	0.2	RANDOM	0	0.703228472448245	0	0	0	NONE	489.0	1
469.6044921875	0.2	RANDOM	0	0.780041467836782	0	0	0	NONE	492.0	1
471.29443359375	0.2	COHERENT	1	0.949827780794294	0	0	0	RIGHT	495.0	1
472.9443359375	0.2	COHERENT	1	n/a	0	1	180	LEFT	498.0	0
474.47412109375	0.2	COHERENT	1	n/a	0	1	180	LEFT	501.0	0
475.9140625	0.2	RANDOM	0	0.738240390904139	0	0	0	NONE	505.0	1
477.36376953125	0.2	RANDOM	0	n/a	0	1	0	NONE	509.0	0
479.41357421875	0.2	COHERENT	1	1.1196225454878	0	0	180	LEFT	510.0	1
481.3134765625	0.2	COHERENT	1	n/a	0	1	180	LEFT	512.0	0
482.95361328125	0.2	COHERENT	1	n/a	0	1	180	LEFT	515.0	0
484.75341796875	0.2	COHERENT	1	n/a	0	1	180	LEFT	516.0	0
486.2333984375	0.2	COHERENT	1	n/a	0	1	180	LEFT	520.0	0
487.953125	0.2	COHERENT	1	n/a	0	1	180	LEFT	523.0	0
489.533203125	0.2	RANDOM	0	0.849333927772022	0	0	0	NONE	526.0	1
491.14306640625	0.2	COHERENT	1	n/a	0	1	0	RIGHT	529.0	0
492.5927734375	0.2	RANDOM	0	0.872873218834684	0	0	0	NONE	533.0	1
494.0927734375	0.2	COHERENT	1	n/a	0	1	0	RIGHT	537.0	0
495.642578125	0.2	COHERENT	1	0.994340959314286	0	0	180	LEFT	540.0	1
497.3125	0.2	RANDOM	0	n/a	0	1	0	NONE	542.0	0
499.33251953125	0.2	RANDOM	0	n/a	0	1	0	NONE	543.0	0
501.1123046875	0.2	RANDOM	0	0.714013490781326	0	0	0	NONE	546.0	1
502.60205078125	0.2	COHERENT	1	n/a	0	1	0	RIGHT	550.0	0
504.2021484375	0.2	RANDOM	0	n/a	0	1	0	NONE	553.0	0
506.27197265625	0.2	COHERENT	1	0.933980776527278	0	0	180	LEFT	554.0	1
507.83154296875	0.2	RANDOM	0	n/a	0	1	0	NONE	557.0	0
509.8212890625	0.2	RANDOM	0	n/a	0	1	0	NONE	559.0	0
511.64111328125	0.2	COHERENT	1	0.854552270815475	0	0	180	LEFT	561.0	1
513.3212890625	0.2	COHERENT	1	n/a	0	1	0	RIGHT	564.0	0
515.2109375	0.2	COHERENT	1	1.15905321242917	0	0	0	RIGHT	567.0	1
517.0908203125	0.2	COHERENT	1	n/a	0	1	180	LEFT	569.0	0
519.16064453125	0.2	RANDOM	0	n/a	0	1	0	NONE	570.0	0
521.0908203125	0.2	RANDOM	0	n/a	0	1	0	NONE	572.0	0
522.53076171875	0.2	RANDOM	0	n/a	0	1	0	NONE	576.0	0
524.3603515625	0.2	COHERENT	1	n/a	0	1	180	LEFT	579.0	0
526.27001953125	0.2	RANDOM	0	0.718729559251187	0	0	0	NONE	580.0	1
527.63037109375	0.2	RANDOM	0	n/a	0	1	0	NONE	584.0	0
529.43017578125	0.2	RANDOM	0	n/a	0	1	0	NONE	587.0	0
531.39990234375	0.2	RANDOM	0	n/a	0	1	0	NONE	588.0	0
532.78955078125	0.2	RANDOM	0	n/a	0	1	0	NONE	592.0	0
534.689453125	0.2	RANDOM	0	n/a	0	1	0	NONE	593.0	0
536.0595703125	0.2	RANDOM	0	n/a	0	1	0	NONE	597.0	0
537.87939453125	0.2	COHERENT	1	n/a	0	1	0	RIGHT	598.0	0
539.529296875	0.2	COHERENT	1	n/a	0	1	0	RIGHT	601.0	0
541.1591796875	0.2	COHERENT	1	n/a	0	1	0	RIGHT	604.0	0
542.5791015625	0.2	COHERENT	1	0.898497975658756	0	0	180	LEFT	608.0	1
544.3291015625	0.2	COHERENT	1	n/a	0	1	180	LEFT	611.0	0
545.87890625	0.2	RANDOM	0	0.80820416012466	0	0	0	NONE	614.0	1
547.57861328125	0.2	COHERENT	1	0.90958725647306	0	0	0	RIGHT	617.0	1
549.21826171875	0.2	RANDOM	0	0.844727731864623	0	0	0	NONE	620.0	1
550.7685546875	0.2	COHERENT	1	0.768558577621661	0	0	0	RIGHT	623.0	1
552.3681640625	0.2	COHERENT	1	0.714297227619682	0	0	0	RIGHT	626.0	1
553.908203125	0.2	COHERENT	1	n/a	0	1	180	LEFT	629.0	0
555.98779296875	0.2	COHERENT	1	n/a	0	1	0	RIGHT	630.0	0
557.57763671875	0.2	RANDOM	0	n/a	0	1	0	NONE	633.0	0
559.52783203125	0.2	COHERENT	1	n/a	0	1	0	RIGHT	634.0	0
561.04736328125	0.2	RANDOM	0	n/a	0	1	0	NONE	637.0	0
562.74755859375	0.2	COHERENT	1	n/a	0	1	180	LEFT	639.0	0
564.54736328125	0.2	RANDOM	0	n/a	0	1	0	NONE	641.0	0
566.51708984375	0.2	COHERENT	1	n/a	0	1	0	RIGHT	642.0	0
568.197265625	0.2	COHERENT	1	n/a	0	1	0	RIGHT	645.0	0
570.216796875	0.2	COHERENT	1	n/a	0	1	0	RIGHT	646.0	0
571.44677734375	0.2	RANDOM	0	n/a	0	1	0	NONE	650.0	0
573.45654296875	0.2	COHERENT	1	n/a	0	1	0	RIGHT	651.0	0
574.96630859375	0.2	RANDOM	0	0.878367752523445	0	0	0	NONE	654.0	1
576.5166015625	0.2	COHERENT	1	n/a	0	1	180	LEFT	657.0	0
578.5263671875	0.2	COHERENT	1	0.979954897917196	0	0	180	LEFT	659.0	1
726.28515625	0.2	RANDOM	0	n/a	0	1	0	NONE	661.0	0
727.85498046875	0.2	RANDOM	0	n/a	0	1	0	NONE	664.0	0
729.27490234375	0.2	RANDOM	0	0.689555375319287	0	0	0	NONE	668.0	1
730.8046875	0.2	COHERENT	1	n/a	0	1	0	RIGHT	671.0	0
732.45458984375	0.2	COHERENT	1	n/a	0	1	0	RIGHT	674.0	0
733.8447265625	0.2	RANDOM	0	n/a	0	1	0	NONE	678.0	0
n/a	0.2	COHERENT	1	1.01975261166172	1	0	180	LEFT	n/a	1
737.26416015625	0.2	COHERENT	1	0.918542172198613	0	0	180	LEFT	681.0	1
738.81396484375	0.2	COHERENT	1	n/a	0	1	0	RIGHT	684.0	0
740.3837890625	0.2	RANDOM	0	0.81402982074178	0	0	0	NONE	687.0	1
741.81396484375	0.2	RANDOM	0	0.893004045664384	0	0	0	NONE	691.0	1
743.31396484375	0.2	RANDOM	0	0.917496873612436	0	0	0	NONE	695.0	1
744.93359375	0.2	RANDOM	0	n/a	0	1	0	NONE	698.0	0
746.5537109375	0.2	COHERENT	1	n/a	0	1	180	LEFT	701.0	0
747.92333984375	0.2	COHERENT	1	1.04827510640825	0	0	0	RIGHT	705.0	1
749.873046875	0.2	COHERENT	1	1.12957114384335	0	0	0	RIGHT	707.0	1
751.80322265625	0.2	COHERENT	1	n/a	0	1	0	RIGHT	709.0	0
753.703125	0.2	COHERENT	1	1.05807459199968	0	0	0	RIGHT	710.0	1
755.64306640625	0.2	COHERENT	1	0.745207035828571	0	0	0	RIGHT	712.0	1
757.1728515625	0.2	COHERENT	1	0.749024201847533	0	0	0	RIGHT	715.0	1
758.61279296875	0.2	RANDOM	0	0.892779772823815	0	0	0	NONE	719.0	1
760.1826171875	0.2	RANDOM	0	n/a	0	1	0	NONE	722.0	0
761.63232421875	0.2	COHERENT	1	0.933050180066857	0	0	0	RIGHT	726.0	1
763.38232421875	0.2	RANDOM	0	n/a	0	1	0	NONE	729.0	0
765.2021484375	0.2	COHERENT	1	n/a	0	1	0	RIGHT	732.0	0
767.15185546875	0.2	RANDOM	0	0.659691469390964	0	0	0	NONE	733.0	1
768.7216796875	0.2	COHERENT	1	n/a	0	1	0	RIGHT	736.0	0
770.181640625	0.2	RANDOM	0	n/a	0	1	0	NONE	740.0	0
771.74169921875	0.2	COHERENT	1	0.938121523280643	0	0	180	LEFT	743.0	1
773.3916015625	0.2	COHERENT	1	n/a	0	1	0	RIGHT	746.0	0
775.3115234375	0.2	COHERENT	1	n/a	0	1	180	LEFT	747.0	0
777.2412109375	0.2	COHERENT	1	n/a	0	1	180	LEFT	748.0	0
778.89111328125	0.2	RANDOM	0	n/a	0	1	0	NONE	751.0	0
780.31103515625	0.2	COHERENT	1	n/a	0	1	180	LEFT	755.0	0
782.36083984375	0.2	COHERENT	1	0.79073985588002	0	0	180	LEFT	756.0	1
783.880859375	0.2	COHERENT	1	n/a	0	1	0	RIGHT	759.0	0
785.6806640625	0.2	COHERENT	1	n/a	0	1	0	RIGHT	760.0	0
787.400390625	0.2	RANDOM	0	1.01006541341485	0	0	0	NONE	763.0	1
789.2001953125	0.2	COHERENT	1	n/a	0	1	0	RIGHT	765.0	0
790.67041015625	0.2	COHERENT	1	n/a	0	1	180	LEFT	769.0	0
792.0400390625	0.2	RANDOM	0	n/a	0	1	0	NONE	773.0	0
793.77001953125	0.2	RANDOM	0	n/a	0	1	0	NONE	776.0	0
795.31005859375	0.2	RANDOM	0	n/a	0	1	0	NONE	779.0	0
797.23974609375	0.2	COHERENT	1	n/a	0	1	0	RIGHT	780.0	0
798.58935546875	0.2	RANDOM	0	0.723700387180543	0	0	0	NONE	784.0	1
800.08935546875	0.2	RANDOM	0	n/a	0	1	0	NONE	788.0	0
801.58935546875	0.2	RANDOM	0	1.10830023824929	0	0	0	NONE	792.0	1
803.529296875	0.2	RANDOM	0	n/a	0	1	0	NONE	794.0	0
805.208984375	0.2	RANDOM	0	n/a	0	1	0	NONE	797.0	0
806.81884765625	0.2	COHERENT	1	n/a	0	1	180	LEFT	800.0	0
808.32861328125	0.2	COHERENT	1	n/a	0	1	180	LEFT	803.0	0
809.7685546875	0.2	RANDOM	0	n/a	0	1	0	NONE	807.0	0
811.44873046875	0.2	COHERENT	1	n/a	0	1	180	LEFT	809.0	0
813.54833984375	0.2	RANDOM	0	n/a	0	1	0	NONE	810.0	0
815.20849609375	0.2	COHERENT	1	n/a	0	1	180	LEFT	813.0	0
816.71826171875	0.2	COHERENT	1	n/a	0	1	0	RIGHT	816.0	0
818.6279296875	0.2	COHERENT	1	0.994062353886875	0	0	180	LEFT	818.0	1
820.30810546875	0.2	RANDOM	0	n/a	0	1	0	NONE	820.0	0
821.89794921875	0.2	RANDOM	0	n/a	0	1	0	NONE	823.0	0
823.59765625	0.2	COHERENT	1	n/a	0	1	180	LEFT	826.0	0
825.2275390625	0.2	COHERENT	1	n/a	0	1	180	LEFT	829.0	0
826.87744140625	0.2	RANDOM	0	n/a	0	1	0	NONE	832.0	0
828.92724609375	0.2	RANDOM	0	n/a	0	1	0	NONE	833.0	0
830.38720703125	0.2	COHERENT	1	0.918564810776843	0	0	180	LEFT	837.0	1
832.037109375	0.2	RANDOM	0	n/a	0	1	0	NONE	840.0	0
n/a	0.2	RANDOM	0	n/a	1	1	0	NONE	n/a	0
835.23681640625	0.2	RANDOM	0	0.949636107504375	0	0	0	NONE	843.0	1
836.98681640625	0.2	COHERENT	1	n/a	0	1	180	LEFT	846.0	0
838.90673828125	0.2	RANDOM	0	n/a	0	1	0	NONE	847.0	0
840.28662109375	0.2	RANDOM	0	n/a	0	1	0	NONE	851.0	0
841.87646484375	0.2	COHERENT	1	n/a	0	1	180	LEFT	854.0	0
843.3759765625	0.2	RANDOM	0	n/a	0	1	0	NONE	858.0	0
n/a	0.2	RANDOM	0	0.783722198694704	1	0	0	NONE	n/a	1
846.67578125	0.2	RANDOM	0	1.02849080073884	0	0	0	NONE	861.0	1
848.56591796875	0.2	RANDOM	0	n/a	0	1	0	NONE	863.0	0
850.515625	0.2	RANDOM	0	n/a	0	1	0	NONE	865.0	0
852.0654296875	0.2	RANDOM	0	n/a	0	1	0	NONE	868.0	0
853.515625	0.2	RANDOM	0	0.923610798782647	0	0	0	NONE	872.0	1
855.28515625	0.2	COHERENT	1	1.11933458278236	0	0	180	LEFT	875.0	1
857.03515625	0.2	RANDOM	0	n/a	0	1	0	NONE	877.0	0
858.68505859375	0.2	COHERENT	1	0.820940623841125	0	0	0	RIGHT	880.0	1
860.134765625	0.2	COHERENT	1	0.682794892374659	0	0	180	LEFT	884.0	1
861.724609375	0.2	RANDOM	0	n/a	0	1	0	NONE	887.0	0
863.49462890625	0.2	RANDOM	0	n/a	0	1	0	NONE	889.0	0
865.36474609375	0.2	RANDOM	0	n/a	0	1	0	NONE	891.0	0
866.96435546875	0.2	RANDOM	0	0.808881808212391	0	0	0	NONE	894.0	1
868.6142578125	0.2	COHERENT	1	1.06961060741105	0	0	0	RIGHT	897.0	1
870.31396484375	0.2	COHERENT	1	n/a	0	1	0	RIGHT	899.0	0
872.333984375	0.2	RANDOM	0	n/a	0	1	0	NONE	900.0	0
874.0537109375	0.2	COHERENT	1	0.934972346222821	0	0	0	RIGHT	903.0	1
875.763671875	0.2	RANDOM	0	n/a	0	1	0	NONE	906.0	0
877.78369140625	0.2	RANDOM	0	0.859395719015083	0	0	0	NONE	908.0	1
879.30322265625	0.2	COHERENT	1	0.988278348252607	0	0	0	RIGHT	911.0	1
881.1435546875	0.2	COHERENT	1	n/a	0	1	180	LEFT	914.0	0
883.123046875	0.2	COHERENT	1	1.07456241893487	0	0	180	LEFT	915.0	1
885.0732421875	0.2	COHERENT	1	n/a	0	1	180	LEFT	917.0	0
886.89306640625	0.2	RANDOM	0	n/a	0	1	0	NONE	918.0	0
888.6728515625	0.2	COHERENT	1	n/a	0	1	0	RIGHT	919.0	0
890.28271484375	0.2	RANDOM	0	0.838858303332017	0	0	0	NONE	922.0	1
891.91259765625	0.2	COHERENT	1	n/a	0	1	0	RIGHT	925.0	0
893.33251953125	0.2	RANDOM	0	n/a	0	1	0	NONE	929.0	0
894.80224609375	0.2	RANDOM	0	0.699297509847383	0	0	0	NONE	933.0	1
896.26220703125	0.2	RANDOM	0	n/a	0	1	0	NONE	937.0	0
898.072265625	0.2	COHERENT	1	n/a	0	1	180	LEFT	939.0	0
899.921875	0.2	RANDOM	0	n/a	0	1	0	NONE	942.0	0
901.501953125	0.2	COHERENT	1	1.09832839762021	0	0	180	LEFT	945.0	1
903.29150390625	0.2	RANDOM	0	n/a	0	1	0	NONE	947.0	0
905.1416015625	0.2	COHERENT	1	n/a	0	1	0	RIGHT	949.0	0
906.6416015625	0.2	COHERENT	1	1.07364963148939	0	0	180	LEFT	953.0	1
908.34130859375	0.2	RANDOM	0	n/a	0	1	0	NONE	955.0	0
910.3310546875	0.2	RANDOM	0	n/a	0	1	0	NONE	956.0	0
911.89111328125	0.2	RANDOM	0	1.0180411352012	0	0	0	NONE	959.0	1
913.78076171875	0.2	COHERENT	1	0.824797030060836	0	0	180	LEFT	961.0	1
915.4306640625	0.2	RANDOM	0	n/a	0	1	0	NONE	964.0	0
917.12060546875	0.2	COHERENT	1	0.864322779027134	0	0	0	RIGHT	967.0	1
918.87060546875	0.2	COHERENT	1	n/a	0	1	180	LEFT	970.0	0
920.75048828125	0.2	COHERENT	1	0.749001261421654	0	0	0	RIGHT	971.0	1
922.2900390625	0.2	RANDOM	0	1.09465943882242	0	0	0	NONE	974.0	1
924.06982421875	0.2	RANDOM	0	0.758494975291796	0	0	0	NONE	976.0	1
925.7099609375	0.2	COHERENT	1	n/a	0	1	180	LEFT	979.0	0
927.509765625	0.2	RANDOM	0	n/a	0	1	0	NONE	980.0	0
929.35986328125	0.2	COHERENT	1	n/a	0	1	0	RIGHT	982.0	0
930.87939453125	0.2	COHERENT	1	n/a	0	1	0	RIGHT	985.0	0
932.70947265625	0.2	COHERENT	1	n/a	0	1	180	LEFT	986.0	0
934.12939453125	0.2	RANDOM	0	n/a	0	1	0	NONE	990.0	0
935.4990234375	0.2	COHERENT	1	n/a	0	1	180	LEFT	994.0	0
937.0791015625	0.2	RANDOM	0	1.13250057577443	0	0	0	NONE	997.0	1
938.9189453125	0.2	COHERENT	1	n/a	0	1	180	LEFT	999.0	0
940.53857421875	0.2	COHERENT	1	n/a	0	1	0	RIGHT	1002.0	0
942.3486328125	0.2	COHERENT	1	n/a	0	1	0	RIGHT	1003.0	0
944.15869140625	0.2	COHERENT	1	0.939875560266955	0	0	180	LEFT	1006.0	1
945.80859375	0.2	RANDOM	0	n/a	0	1	0	NONE	1009.0	0
947.16845703125	0.2	COHERENT	1	n/a	0	1	0	RIGHT	1013.0	0
948.83837890625	0.2	COHERENT	1	n/a	0	1	0	RIGHT	1016.0	0
950.578125	0.2	COHERENT	1	n/a	0	1	0	RIGHT	1018.0	0
952.248046875	0.2	RANDOM	0	n/a	0	1	0	NONE	1021.0	0
953.90771484375	0.2	COHERENT	1	n/a	0	1	0	RIGHT	1024.0	0
955.99755859375	0.2	RANDOM	0	1.08458889399753	0	0	0	NONE	1025.0	1
957.79736328125	0.2	RANDOM	0	n/a	0	1	0	NONE	1027.0	0
959.34716796875	0.2	RANDOM	0	n/a	0	1	0	NONE	1030.0	0
960.9873046875	0.2	COHERENT	1	n/a	0	1	180	LEFT	1033.0	0
962.81689453125	0.2	COHERENT	1	n/a	0	1	180	LEFT	1036.0	0
964.5869140625	0.2	RANDOM	0	1.13418156561784	0	0	0	NONE	1039.0	1
966.43701171875	0.2	RANDOM	0	n/a	0	1	0	NONE	1041.0	0
968.45654296875	0.2	RANDOM	0	0.995677842779514	0	0	0	NONE	1042.0	1
970.1767578125	0.2	COHERENT	1	n/a	0	1	180	LEFT	1044.0	0
971.6962890625	0.2	RANDOM	0	n/a	0	1	0	NONE	1047.0	0
973.54638671875	0.2	COHERENT	1	n/a	0	1	0	RIGHT	1048.0	0
975.34619140625	0.2	COHERENT	1	0.908907193604136	0	0	180	LEFT	1051.0	1
976.9658203125	0.2	RANDOM	0	1.00764761333539	0	0	0	NONE	1054.0	1
n/a	0.2	RANDOM	0	n/a	1	1	0	NONE	n/a	0
1058.06005859375	0.2	RANDOM	0	0.900295176866166	0	0	0	NONE	1056.0	1
1059.60986328125	0.2	COHERENT	1	n/a	0	1	0	RIGHT	1059.0	0
1061.509765625	0.2	RANDOM	0	n/a	0	1	0	NONE	1060.0	0
1063.1796875	0.2	COHERENT	1	n/a	0	1	180	LEFT	1062.0	0
1064.70947265625	0.2	RANDOM	0	0.858080568584228	0	0	0	NONE	1065.0	1
1066.19921875	0.2	RANDOM	0	0.773283097826607	0	0	0	NONE	1069.0	1
1067.79931640625	0.2	COHERENT	1	n/a	0	1	180	LEFT	1072.0	0
1069.42919921875	0.2	COHERENT	1	n/a	0	1	180	LEFT	1075.0	0
1070.94873046875	0.2	COHERENT	1	0.929596438680164	0	0	0	RIGHT	1078.0	1
1072.73876953125	0.2	RANDOM	0	0.839074426286061	0	0	0	NONE	1081.0	1
1074.36865234375	0.2	COHERENT	1	0.979098254142627	0	0	180	LEFT	1084.0	1
1075.95849609375	0.2	COHERENT	1	n/a	0	1	0	RIGHT	1087.0	0
1077.46826171875	0.2	RANDOM	0	0.827807055327867	0	0	0	NONE	1090.0	1
1079.1884765625	0.2	COHERENT	1	n/a	0	1	0	RIGHT	1093.0	0
1081.13818359375	0.2	COHERENT	1	0.789985538476685	0	0	0	RIGHT	1094.0	1
1082.658203125	0.2	COHERENT	1	n/a	0	1	0	RIGHT	1097.0	0
1084.60791015625	0.2	RANDOM	0	n/a	0	1	0	NONE	1098.0	0
1086.57763671875	0.2	RANDOM	0	n/a	0	1	0	NONE	1099.0	0
1087.9677734375	0.2	COHERENT	1	n/a	0	1	0	RIGHT	1103.0	0
1089.447265625	0.2	RANDOM	0	n/a	0	1	0	NONE	1107.0	0
1091.13720703125	0.2	RANDOM	0	n/a	0	1	0	NONE	1110.0	0
1093.08740234375	0.2	RANDOM	0	n/a	0	1	0	NONE	1111.0	0
1095.0068359375	0.2	RANDOM	0	0.824161036955047	0	0	0	NONE	1113.0	1
1096.73681640625	0.2	COHERENT	1	n/a	0	1	180	LEFT	1116.0	0
1098.60693359375	0.2	COHERENT	1	n/a	0	1	180	LEFT	1117.0	0
1100.4765625	0.2	COHERENT	1	n/a	0	1	180	LEFT	1118.0	0
1102.32666015625	0.2	COHERENT	1	1.19822610143456	0	0	0	RIGHT	1120.0	1
1104.1962890625	0.2	COHERENT	1	n/a	0	1	0	RIGHT	1122.0	0
1105.826171875	0.2	COHERENT	1	n/a	0	1	180	LEFT	1125.0	0
1107.916015625	0.2	RANDOM	0	n/a	0	1	0	NONE	1126.0	0
1109.72607421875	0.2	COHERENT	1	n/a	0	1	0	RIGHT	1127.0	0
1111.56591796875	0.2	RANDOM	0	1.19806129259086	0	0	0	NONE	1129.0	1
1113.41552734375	0.2	RANDOM	0	n/a	0	1	0	NONE	1131.0	0
1115.00537109375	0.2	COHERENT	1	n/a	0	1	0	RIGHT	1134.0	0
1116.685546875	0.2	RANDOM	0	n/a	0	1	0	NONE	1136.0	0
1118.38525390625	0.2	COHERENT	1	n/a	0	1	0	RIGHT	1139.0	0
1120.125	0.2	COHERENT	1	n/a	0	1	180	LEFT	1141.0	0
1122.02490234375	0.2	COHERENT	1	n/a	0	1	0	RIGHT	1142.0	0
1123.794921875	0.2	RANDOM	0	1.15436280101403	0	0	0	NONE	1144.0	1
1125.71484375	0.2	COHERENT	1	0.909427277191753	0	0	180	LEFT	1146.0	1
1127.41455078125	0.2	RANDOM	0	0.93935849515583	0	0	0	NONE	1149.0	1
1129.0244140625	0.2	RANDOM	0	n/a	0	1	0	NONE	1152.0	0
1131.01416015625	0.2	RANDOM	0	0.855590928752463	0	0	0	NONE	1153.0	1
1132.46435546875	0.2	COHERENT	1	0.878831390591586	0	0	180	LEFT	1157.0	1
1134.00390625	0.2	RANDOM	0	n/a	0	1	0	NONE	1160.0	0
1135.9638671875	0.2	RANDOM	0	1.14392943525218	0	0	0	NONE	1161.0	1
1137.73388671875	0.2	RANDOM	0	1.16363344943329	0	0	0	NONE	1163.0	1
1139.603515625	0.2	COHERENT	1	0.718843355833997	0	0	180	LEFT	1165.0	1
1141.1533203125	0.2	RANDOM	0	0.684570964243903	0	0	0	NONE	1168.0	1
1142.50341796875	0.2	RANDOM	0	n/a	0	1	0	NONE	1172.0	0
1144.0732421875	0.2	RANDOM	0	0.778992245231166	0	0	0	NONE	1175.0	1
1145.67333984375	0.2	COHERENT	1	0.955033144387016	0	0	180	LEFT	1178.0	1
1147.31298828125	0.2	COHERENT	1	0.942806803284839	0	0	0	RIGHT	1181.0	1
1148.89306640625	0.2	COHERENT	1	0.718593425938707	0	0	0	RIGHT	1184.0	1
1150.49267578125	0.2	RANDOM	0	0.914335018951533	0	0	0	NONE	1187.0	1
1152.11279296875	0.2	RANDOM	0	0.818130119902889	0	0	0	NONE	1190.0	1
1153.6826171875	0.2	COHERENT	1	0.749981662752361	0	0	180	LEFT	1193.0	1
1155.33251953125	0.2	COHERENT	1	0.750820799359644	0	0	180	LEFT	1196.0	1
1156.90234375	0.2	COHERENT	1	n/a	0	1	180	LEFT	1199.0	0
1158.822265625	0.2	RANDOM	0	1.0842791982559	0	0	0	NONE	1200.0	1
1160.6220703125	0.2	RANDOM	0	n/a	0	1	0	NONE	1202.0	0
1162.5517578125	0.2	RANDOM	0	n/a	0	1	0	NONE	1203.0	0
1164.44189453125	0.2	COHERENT	1	0.91455325483912	0	0	180	LEFT	1205.0	1
1166.07177734375	0.2	RANDOM	0	0.644545355484297	0	0	0	NONE	1208.0	1
1167.37158203125	0.2	COHERENT	1	n/a	0	1	0	RIGHT	1212.0	0
1168.9912109375	0.2	RANDOM	0	0.96988857895758	0	0	0	NONE	1215.0	1
1170.63134765625	0.2	COHERENT	1	0.693831953537483	0	0	0	RIGHT	1218.0	1
1172.01123046875	0.2	COHERENT	1	0.622614308969787	0	0	180	LEFT	1222.0	1
1173.31103515625	0.2	RANDOM	0	0.833462775689441	0	0	0	NONE	1226.0	1
1174.85107421875	0.2	RANDOM	0	1.19813675451496	0	0	0	NONE	1229.0	1
1176.9306640625	0.2	RANDOM	0	0.879714898809652	0	0	0	NONE	1231.0	1
1178.4208984375	0.2	COHERENT	1	0.838850757138971	0	0	0	RIGHT	1235.0	1
1179.87060546875	0.2	COHERENT	1	0.727647045861886	0	0	0	RIGHT	1239.0	1
1181.29052734375	0.2	RANDOM	0	n/a	0	1	0	NONE	1243.0	0
1183.10009765625	0.2	COHERENT	1	0.914112557196859	0	0	0	RIGHT	1246.0	1
1184.8203125	0.2	RANDOM	0	0.940047915304604	0	0	0	NONE	1249.0	1
1186.43994140625	0.2	COHERENT	1	n/a	0	1	180	LEFT	1252.0	0
1188.48974609375	0.2	RANDOM	0	0.850539809335714	0	0	0	NONE	1253.0	1
1190.18994140625	0.2	COHERENT	1	0.669407041322302	0	0	0	RIGHT	1256.0	1
1191.60986328125	0.2	COHERENT	1	0.579108094378171	0	0	180	LEFT	1260.0	1
1192.8994140625	0.2	COHERENT	1	n/a	0	1	180	LEFT	1264.0	0
1194.8994140625	0.2	RANDOM	0	1.0096138492554	0	0	0	NONE	1265.0	1
1196.67919921875	0.2	COHERENT	1	0.674514002564138	0	0	180	LEFT	1267.0	1
1198.19921875	0.2	RANDOM	0	0.809334579763345	0	0	0	NONE	1270.0	1
1199.71923828125	0.2	COHERENT	1	0.678051959459481	0	0	180	LEFT	1273.0	1
1201.0390625	0.2	COHERENT	1	1.01785187669248	0	0	180	LEFT	1277.0	1
1202.8388671875	0.2	COHERENT	1	n/a	0	1	0	RIGHT	1279.0	0
1204.61865234375	0.2	RANDOM	0	0.709353565983292	0	0	0	NONE	1280.0	1
1206.23876953125	0.2	COHERENT	1	0.61932748936033	0	0	0	RIGHT	1283.0	1
1207.55859375	0.2	COHERENT	1	1.10795341524044	0	0	0	RIGHT	1287.0	1
1209.38818359375	0.2	COHERENT	1	1.14481867857739	0	0	180	LEFT	1289.0	1
1211.2080078125	0.2	RANDOM	0	n/a	0	1	0	NONE	1291.0	0
1213.2080078125	0.2	COHERENT	1	1.10905304641255	0	0	180	LEFT	1293.0	1
1214.927734375	0.2	RANDOM	0	n/a	0	1	0	NONE	1295.0	0
1217.02783203125	0.2	RANDOM	0	n/a	0	1	0	NONE	1296.0	0
1218.6474609375	0.2	COHERENT	1	n/a	0	1	180	LEFT	1298.0	0
1220.447265625	0.2	COHERENT	1	0.738343019123022	0	0	0	RIGHT	1299.0	1
1222.037109375	0.2	RANDOM	0	0.7190045425059	0	0	0	NONE	1302.0	1
1223.59716796875	0.2	RANDOM	0	0.779884205185226	0	0	0	NONE	1305.0	1
1225.13720703125	0.2	RANDOM	0	n/a	0	1	0	NONE	1308.0	0
1227.0869140625	0.2	RANDOM	0	0.719177501238846	0	0	0	NONE	1309.0	1
1228.65673828125	0.2	RANDOM	0	0.810320112504996	0	0	0	NONE	1312.0	1
1230.07666015625	0.2	COHERENT	1	0.7681568183325	0	0	0	RIGHT	1316.0	1
1231.44677734375	0.2	COHERENT	1	1.04798321968337	0	0	180	LEFT	1320.0	1
1233.146484375	0.2	RANDOM	0	n/a	0	1	0	NONE	1322.0	0
1234.87646484375	0.2	COHERENT	1	0.574331052672278	0	0	0	RIGHT	1325.0	1
1236.3662109375	0.2	RANDOM	0	n/a	0	1	0	NONE	1329.0	0
1238.3759765625	0.2	COHERENT	1	0.63406701441545	0	0	180	LEFT	1330.0	1
1239.666015625	0.2	RANDOM	0	0.707882058443829	0	0	0	NONE	1334.0	1
1241.24609375	0.2	RANDOM	0	n/a	0	1	0	NONE	1337.0	0
1243.015625	0.2	RANDOM	0	0.60956694212291	0	0	0	NONE	1340.0	1
1244.505859375	0.2	RANDOM	0	n/a	0	1	0	NONE	1344.0	0
1246.2353515625	0.2	RANDOM	0	0.623084889533857	0	0	0	NONE	1347.0	1
1247.615234375	0.2	RANDOM	0	0.650049850148207	0	0	0	NONE	1351.0	1
1249.025390625	0.2	COHERENT	1	0.809828402600942	0	0	0	RIGHT	1355.0	1
1250.6552734375	0.2	COHERENT	1	n/a	0	1	180	LEFT	1358.0	0
1252.05517578125	0.2	COHERENT	1	0.898315357800129	0	0	180	LEFT	1362.0	1
1253.794921875	0.2	RANDOM	0	1.17396539436868	0	0	0	NONE	1365.0	1
1255.71484375	0.2	COHERENT	1	0.649879608045012	0	0	0	RIGHT	1367.0	1
1257.24462890625	0.2	COHERENT	1	0.864564860882638	0	0	0	RIGHT	1370.0	1
1258.71435546875	0.2	RANDOM	0	n/a	0	1	0	NONE	1374.0	0
1260.41455078125	0.2	COHERENT	1	0.898293021069549	0	0	0	RIGHT	1376.0	1
1262.1142578125	0.2	COHERENT	1	n/a	0	1	0	RIGHT	1379.0	0
1264.1142578125	0.2	COHERENT	1	0.689581937916046	0	0	180	LEFT	1380.0	1
1265.55419921875	0.2	RANDOM	0	0.669624371666032	0	0	0	NONE	1384.0	1
1266.9541015625	0.2	RANDOM	0	n/a	0	1	0	NONE	1388.0	0
1268.4736328125	0.2	RANDOM	0	n/a	0	1	0	NONE	1391.0	0
1270.28369140625	0.2	COHERENT	1	0.853030354710427	0	0	180	LEFT	1392.0	1
1272.04345703125	0.2	RANDOM	0	1.16980593305834	0	0	0	NONE	1395.0	1
1273.8935546875	0.2	COHERENT	1	0.763214062239058	0	0	0	RIGHT	1397.0	1
1275.5234375	0.2	RANDOM	0	n/a	0	1	0	NONE	1400.0	0
1277.54296875	0.2	COHERENT	1	0.974078828734491	0	0	0	RIGHT	1401.0	1
1279.43310546875	0.2	RANDOM	0	n/a	0	1	0	NONE	1404.0	0
1281.53271484375	0.2	COHERENT	1	0.719647478107618	0	0	0	RIGHT	1405.0	1
1282.8427734375	0.2	RANDOM	0	n/a	0	1	0	NONE	1409.0	0
1284.65234375	0.2	COHERENT	1	0.728100722954878	0	0	180	LEFT	1410.0	1
1286.25244140625	0.2	COHERENT	1	0.634906151021823	0	0	180	LEFT	1413.0	1
1287.75244140625	0.2	COHERENT	1	n/a	0	1	180	LEFT	1417.0	0
1289.85205078125	0.2	COHERENT	1	0.799125486842968	0	0	0	RIGHT	1418.0	1
1291.3720703125	0.2	RANDOM	0	1.04388986301819	0	0	0	NONE	1421.0	1
1293.07177734375	0.2	COHERENT	1	n/a	0	1	0	RIGHT	1423.0	0
1294.9716796875	0.2	RANDOM	0	n/a	0	1	0	NONE	1424.0	1
1295.79150390625	0.2	RANDOM	0	0.893798206964675	0	0	0	NONE	1429.0	1
1297.3115234375	0.2	RANDOM	0	0.813599989616705	0	0	0	NONE	1432.0	1
1299.021484375	0.2	RANDOM	0	0.899303607170623	0	0	0	NONE	1435.0	1
1300.68115234375	0.2	COHERENT	1	0.779057444334285	0	0	180	LEFT	1438.0	1
1302.14111328125	0.2	COHERENT	1	n/a	0	1	180	LEFT	1442.0	0
1303.90087890625	0.2	RANDOM	0	1.08960831940567	0	0	0	NONE	1445.0	1
1305.68115234375	0.2	RANDOM	0	0.818365561109204	0	0	0	NONE	1447.0	1
