onset	duration	trial_type	trial_type_id	response_time	bad_epoch	outliers	event_num	response_accuracy
27.07958984375	0.2	SCRAMBLED	0	0.930110084487751	0	0	1.0	1
28.86279296875	0.2	SCRAMBLED	0	0.821407161679417	0	0	6.0	1
30.39599609375	0.2	FACES	1	n/a	0	1	12.0	0
32.23779296875	0.2	SCRAMBLED	0	0.860803040227438	0	0	14.0	1
33.97119140625	0.2	SCRAMBLED	0	0.743815256073958	0	0	19.0	1
n/a	0.2	FACES	1	0.598841803731375	1	0	n/a	1
36.85400390625	0.2	FACES	1	1.11448575421628	0	0	26.0	1
38.75390625	0.2	FACES	1	0.84027848628557	0	0	30.0	1
n/a	0.2	FACES	1	0.774531454219868	1	0	n/a	1
41.87890625	0.2	FACES	1	0.707069917383706	0	0	37.0	1
43.46240234375	0.2	SCRAMBLED	0	0.493630976995973	0	0	43.0	1
44.72900390625	0.2	SCRAMBLED	0	0.479044405069999	0	0	51.0	1
46.07861328125	0.2	SCRAMBLED	0	0.418898491054733	0	0	59.0	1
47.1787109375	0.2	FACES	1	0.689704217742019	0	0	67.0	1
48.61181640625	0.2	SCRAMBLED	0	0.610651662737837	0	0	75.0	1
50.06201171875	0.2	FACES	1	0.53219888255353	0	0	83.0	1
51.39501953125	0.2	SCRAMBLED	0	0.46831546887779	0	0	91.0	1
52.6865234375	0.2	FACES	1	0.549151954022363	0	0	99.0	1
54.13671875	0.2	SCRAMBLED	0	0.462388353441384	0	0	107.0	1
55.35302734375	0.2	SCRAMBLED	0	0.476872900259877	0	0	115.0	1
56.52001953125	0.2	SCRAMBLED	0	0.526493626449337	0	0	123.0	1
57.9033203125	0.2	FACES	1	0.497638933747112	0	0	131.0	1
59.2529296875	0.2	FACES	1	0.39793052029745	0	0	139.0	1
60.36962890625	0.2	SCRAMBLED	0	0.569128349397033	0	0	147.0	1
61.61962890625	0.2	FACES	1	0.483666625414116	0	0	155.0	1
62.96142578125	0.2	FACES	1	0.374118826047379	0	0	163.0	1
64.177734375	0.2	SCRAMBLED	0	0.420392947590244	0	0	171.0	1
65.4609375	0.2	FACES	1	0.332824012726178	0	0	179.0	1
66.64453125	0.2	SCRAMBLED	0	0.412866935715101	0	0	187.0	1
67.84423828125	0.2	FACES	1	0.390244226375216	0	0	195.0	1
69.07763671875	0.2	SCRAMBLED	0	0.344729256152732	0	0	203.0	1
70.2109375	0.2	SCRAMBLED	0	0.411331125807465	0	0	211.0	1
71.57763671875	0.2	FACES	1	0.566111062480104	0	0	219.0	1
73.05224609375	0.2	FACES	1	0.448674730071161	0	0	227.0	1
n/a	0.2	FACES	1	0.757237292893933	1	0	n/a	1
75.58544921875	0.2	FACES	1	0.373589382144473	0	0	235.0	1
76.685546875	0.2	FACES	1	0.391116873081501	0	0	243.0	1
77.88525390625	0.2	FACES	1	0.323263233834041	0	0	251.0	1
79.11865234375	0.2	FACES	1	0.298557159717802	0	0	259.0	1
80.2353515625	0.2	SCRAMBLED	0	0.468704854644329	0	0	267.0	1
81.61865234375	0.2	SCRAMBLED	0	0.377527913526137	0	0	275.0	1
82.9599609375	0.2	SCRAMBLED	0	0.369695826327643	0	0	283.0	1
84.193359375	0.2	SCRAMBLED	0	0.322982212012903	0	0	291.0	1
85.3935546875	0.2	FACES	1	0.448148304662482	0	0	299.0	1
86.52685546875	0.2	FACES	1	0.432448813882729	0	0	307.0	1
87.9267578125	0.2	SCRAMBLED	0	0.494822074852891	0	0	315.0	1
89.2265625	0.2	FACES	1	0.505357525559248	0	0	323.0	1
90.54296875	0.2	FACES	1	0.779692777648506	0	0	331.0	1
92.2099609375	0.2	FACES	1	0.380166077557078	0	0	337.0	1
n/a	0.2	SCRAMBLED	0	0.613996758137091	1	0	n/a	1
94.951171875	0.2	SCRAMBLED	0	0.380534937562061	0	0	344.0	1
96.01806640625	0.2	SCRAMBLED	0	0.392703695542878	0	0	352.0	1
97.1513671875	0.2	FACES	1	0.687227241307482	0	0	360.0	1
98.517578125	0.2	FACES	1	0.339057203485936	0	0	368.0	1
99.63427734375	0.2	SCRAMBLED	0	0.449750219595444	0	0	376.0	1
100.984375	0.2	SCRAMBLED	0	0.335549411242937	0	0	384.0	1
102.16748046875	0.2	SCRAMBLED	0	0.420817649739547	0	0	392.0	1
103.458984375	0.2	SCRAMBLED	0	0.370373780151112	0	0	400.0	1
104.55908203125	0.2	SCRAMBLED	0	0.396583969984476	0	0	408.0	1
105.6591796875	0.2	FACES	1	0.451594217772254	0	0	416.0	1
106.77587890625	0.2	SCRAMBLED	0	0.452285452970045	0	0	424.0	1
108.1923828125	0.2	SCRAMBLED	0	0.413058006405208	0	0	432.0	1
109.4921875	0.2	SCRAMBLED	0	0.404342707770411	0	0	440.0	1
110.67529296875	0.2	FACES	1	0.392126559429926	0	0	448.0	1
111.92529296875	0.2	SCRAMBLED	0	0.621418028259086	0	0	456.0	1
113.2919921875	0.2	SCRAMBLED	0	0.402981064984942	0	0	464.0	1
114.58349609375	0.2	SCRAMBLED	0	0.369398504637957	0	0	472.0	1
115.716796875	0.2	SCRAMBLED	0	0.410310874729475	0	0	480.0	1
117.03369140625	0.2	SCRAMBLED	0	0.35599427693478	0	0	488.0	1
n/a	0.2	SCRAMBLED	0	0.587774796176291	1	0	n/a	1
119.5498046875	0.2	FACES	1	0.324986492237713	0	0	496.0	1
120.61669921875	0.2	FACES	1	0.322385153837786	0	0	504.0	1
121.61669921875	0.2	FACES	1	0.323074577938769	0	0	513.0	1
122.68310546875	0.2	SCRAMBLED	0	0.387012324512398	0	0	521.0	1
123.8916015625	0.2	SCRAMBLED	0	0.346119574633576	0	0	529.0	1
124.9912109375	0.2	FACES	1	0.40878049811181	0	0	537.0	1
126.27490234375	0.2	FACES	1	0.324273222031479	0	0	545.0	1
127.5078125	0.2	SCRAMBLED	0	0.439030338886369	0	0	553.0	1
128.69140625	0.2	FACES	1	0.383622253547401	0	0	561.0	1
129.724609375	0.2	FACES	1	0.407912379147092	0	0	569.0	1
131.0244140625	0.2	FACES	1	0.306587260142805	0	0	577.0	1
132.12451171875	0.2	FACES	1	0.368378555408981	0	0	585.0	1
133.2578125	0.2	SCRAMBLED	0	0.41134229423642	0	0	593.0	1
134.36572265625	0.2	FACES	1	0.414749872468292	0	0	601.0	1
135.7158203125	0.2	FACES	1	0.49759939147134	0	0	609.0	1
136.9658203125	0.2	SCRAMBLED	0	0.395864360939413	0	0	617.0	1
138.08251953125	0.2	SCRAMBLED	0	0.35443582832022	0	0	625.0	1
139.16552734375	0.2	FACES	1	0.400330223278161	0	0	633.0	1
140.38232421875	0.2	FACES	1	0.281745655632221	0	0	641.0	1
141.44873046875	0.2	SCRAMBLED	0	0.490561168277964	0	0	649.0	1
142.8154296875	0.2	FACES	1	0.258576296971569	0	0	657.0	1
143.9404296875	0.2	SCRAMBLED	0	0.461241929300741	0	0	665.0	1
145.30712890625	0.2	SCRAMBLED	0	0.4049162216902	0	0	673.0	1
146.6572265625	0.2	FACES	1	0.476110730445725	0	0	681.0	1
148.0068359375	0.2	SCRAMBLED	0	0.420990609464297	0	0	689.0	1
149.14013671875	0.2	SCRAMBLED	0	0.395289639622206	0	0	697.0	1
n/a	0.2	FACES	1	0.333786610563038	1	0	n/a	1
n/a	0.2	FACES	1	0.306388643216906	1	0	n/a	1
152.5400390625	0.2	SCRAMBLED	0	0.429192160366711	0	0	705.0	1
153.71484375	0.2	SCRAMBLED	0	0.40152433962885	0	0	713.0	1
154.76513671875	0.2	FACES	1	0.400939959129573	0	0	721.0	1
155.8984375	0.2	FACES	1	0.266656202552895	0	0	729.0	1
156.998046875	0.2	FACES	1	0.298994539543855	0	0	737.0	1
158.2314453125	0.2	SCRAMBLED	0	0.419954058516396	0	0	745.0	1
159.5478515625	0.2	FACES	1	0.224010914875635	0	0	753.0	1
160.7314453125	0.2	SCRAMBLED	0	0.40308822153338	0	0	761.0	1
161.91455078125	0.2	SCRAMBLED	0	0.412630889459706	0	0	769.0	1
163.1142578125	0.2	SCRAMBLED	0	0.413550020978619	0	0	777.0	1
164.30615234375	0.2	SCRAMBLED	0	0.387455137628422	0	0	785.0	1
165.62255859375	0.2	SCRAMBLED	0	0.319852335258474	0	0	793.0	1
166.60595703125	0.2	SCRAMBLED	0	0.346066750983027	0	0	803.0	1
167.7392578125	0.2	FACES	1	0.426375603321503	0	0	811.0	1
169.07275390625	0.2	FACES	1	0.293171864010674	0	0	819.0	1
170.0390625	0.2	FACES	1	0.433457896532218	0	0	829.0	1
171.37255859375	0.2	FACES	1	0.334034428946325	0	0	837.0	1
172.47216796875	0.2	FACES	1	0.316953977016965	0	0	845.0	1
173.73876953125	0.2	FACES	1	0.318105532598111	0	0	853.0	1
174.79736328125	0.2	FACES	1	0.293279624257593	0	0	861.0	1
175.89697265625	0.2	SCRAMBLED	0	0.404359913187818	0	0	869.0	1
177.04736328125	0.2	FACES	1	0.367430748194238	0	0	877.0	1
178.38037109375	0.2	SCRAMBLED	0	n/a	0	1	885.0	0
179.66357421875	0.2	FACES	1	0.424082453190749	0	0	893.0	1
181.013671875	0.2	SCRAMBLED	0	0.370891451926127	0	0	901.0	1
182.3466796875	0.2	SCRAMBLED	0	0.4296053922385	0	0	909.0	1
183.580078125	0.2	FACES	1	0.608934743171176	0	0	917.0	1
185.0048828125	0.2	FACES	1	0.382629772616838	0	0	925.0	1
186.271484375	0.2	FACES	1	0.349677172032898	0	0	933.0	1
187.5380859375	0.2	SCRAMBLED	0	0.422047384323832	0	0	941.0	1
188.7880859375	0.2	SCRAMBLED	0	0.435878427123043	0	0	949.0	1
189.92138671875	0.2	SCRAMBLED	0	0.371035735954138	0	0	957.0	1
191.22119140625	0.2	FACES	1	0.408596973657495	0	0	965.0	1
192.3212890625	0.2	SCRAMBLED	0	0.403062866181244	0	0	973.0	1
193.40478515625	0.2	SCRAMBLED	0	0.387024096640289	0	0	981.0	1
194.61279296875	0.2	FACES	1	0.381737203848388	0	0	989.0	1
195.87939453125	0.2	FACES	1	0.352042766027353	0	0	997.0	1
197.16259765625	0.2	SCRAMBLED	0	0.378592838320401	0	0	1005.0	1
198.1962890625	0.2	SCRAMBLED	0	0.345860285972321	0	0	1013.0	1
199.3125	0.2	FACES	1	0.407097385681936	0	0	1021.0	1
200.595703125	0.2	FACES	1	0.316996537786963	0	0	1029.0	1
201.779296875	0.2	SCRAMBLED	0	0.396398332583885	0	0	1037.0	1
203.1123046875	0.2	SCRAMBLED	0	0.362973941338623	0	0	1045.0	1
n/a	0.2	FACES	1	0.333621498924003	1	0	n/a	1
n/a	0.2	FACES	1	0.301922177179222	1	0	n/a	1
206.7041015625	0.2	SCRAMBLED	0	0.413983778611509	0	0	1053.0	1
207.93701171875	0.2	SCRAMBLED	0	0.405236483937188	0	0	1061.0	1
209.10400390625	0.2	FACES	1	0.349802741396616	0	0	1069.0	1
210.287109375	0.2	FACES	1	0.309266777546327	0	0	1077.0	1
211.37060546875	0.2	FACES	1	0.34181701283751	0	0	1085.0	1
212.67041015625	0.2	SCRAMBLED	0	0.520184973331652	0	0	1093.0	1
214.103515625	0.2	FACES	1	0.557467604009616	0	0	1101.0	1
n/a	0.2	SCRAMBLED	0	0.577126453782512	1	0	n/a	1
n/a	0.2	FACES	1	0.383960928609667	1	0	n/a	1
n/a	0.2	FACES	1	0.551167704525596	1	0	n/a	1
n/a	0.2	FACES	1	0.466750077725919	1	0	n/a	1
242.69384765625	0.2	FACES	1	0.308315046288953	0	0	1109.0	1
243.8935546875	0.2	SCRAMBLED	0	0.476714429308231	0	0	1117.0	1
245.1103515625	0.2	SCRAMBLED	0	0.321009927828072	0	0	1125.0	1
246.13525390625	0.2	SCRAMBLED	0	0.379847928256368	0	0	1133.0	1
247.38525390625	0.2	SCRAMBLED	0	0.338381966307679	0	0	1141.0	1
248.53515625	0.2	SCRAMBLED	0	0.2552957973503	0	0	1149.0	1
249.65185546875	0.2	SCRAMBLED	0	0.337232221822887	0	0	1157.0	1
250.65185546875	0.2	FACES	1	0.433414128364348	0	0	1166.0	1
251.88525390625	0.2	SCRAMBLED	0	0.396590610671865	0	0	1174.0	1
253.0517578125	0.2	SCRAMBLED	0	0.368883851357168	0	0	1182.0	1
254.20166015625	0.2	FACES	1	0.452022240265705	0	0	1190.0	1
n/a	0.2	FACES	1	0.348206561603092	1	0	n/a	1
256.62646484375	0.2	SCRAMBLED	0	0.438504215327157	0	0	1198.0	1
257.7265625	0.2	SCRAMBLED	0	0.387299987020469	0	0	1206.0	1
259.076171875	0.2	FACES	1	0.349488516138535	0	0	1214.0	1
260.2431640625	0.2	FACES	1	0.335051963379556	0	0	1222.0	1
261.3095703125	0.2	SCRAMBLED	0	0.400358597124523	0	0	1230.0	1
262.40966796875	0.2	SCRAMBLED	0	0.370548550971762	0	0	1238.0	1
263.49267578125	0.2	FACES	1	0.367452481353212	0	0	1246.0	1
264.576171875	0.2	SCRAMBLED	0	0.354010522471071	0	0	1254.0	1
265.81787109375	0.2	SCRAMBLED	0	0.352928090409932	0	0	1262.0	1
266.951171875	0.2	FACES	1	0.393613771578202	0	0	1270.0	1
268.13427734375	0.2	SCRAMBLED	0	0.406161652444553	0	0	1278.0	1
269.3505859375	0.2	FACES	1	0.366835802964488	0	0	1286.0	1
270.45068359375	0.2	SCRAMBLED	0	0.337038434488477	0	0	1294.0	1
271.70068359375	0.2	SCRAMBLED	0	0.455548143474971	0	0	1302.0	1
n/a	0.2	FACES	1	0.425485147498875	1	0	n/a	1
n/a	0.2	FACES	1	0.31842700224297	1	0	n/a	1
275.21728515625	0.2	FACES	1	0.299581334838422	0	0	1310.0	1
276.30859375	0.2	FACES	1	0.343389950224719	0	0	1318.0	1
277.60888671875	0.2	FACES	1	0.351947079757338	0	0	1326.0	1
278.60888671875	0.2	SCRAMBLED	0	0.396263104038553	0	0	1335.0	1
279.89208984375	0.2	SCRAMBLED	0	0.464030716198522	0	0	1343.0	1
281.24169921875	0.2	FACES	1	0.424920990911232	0	0	1351.0	1
282.375	0.2	FACES	1	0.333505286892432	0	0	1359.0	1
283.6416015625	0.2	FACES	1	0.342275823973523	0	0	1367.0	1
284.69189453125	0.2	SCRAMBLED	0	0.453843599735137	0	0	1375.0	1
285.8916015625	0.2	SCRAMBLED	0	0.279593167336316	0	0	1383.0	1
287.13330078125	0.2	FACES	1	0.382302567832994	0	0	1391.0	1
288.39990234375	0.2	SCRAMBLED	0	0.44648330319842	0	0	1399.0	1
289.63330078125	0.2	FACES	1	0.43302051670571	0	0	1407.0	1
290.96630859375	0.2	SCRAMBLED	0	0.346049243716152	0	0	1415.0	1
292.0498046875	0.2	FACES	1	0.447244869314545	0	0	1423.0	1
293.2998046875	0.2	FACES	1	0.308695678421827	0	0	1431.0	1
294.51611328125	0.2	FACES	1	0.251866184109986	0	0	1439.0	1
295.5830078125	0.2	FACES	1	0.277536063460502	0	0	1447.0	1
296.60791015625	0.2	SCRAMBLED	0	0.420953180134802	0	0	1455.0	1
297.95751953125	0.2	FACES	1	0.485229601770243	0	0	1463.0	1
299.32421875	0.2	SCRAMBLED	0	0.347292259674759	0	0	1471.0	1
300.40771484375	0.2	FACES	1	0.317417617743558	0	0	1479.0	1
301.3740234375	0.2	SCRAMBLED	0	0.50349722751298	0	0	1489.0	1
302.77392578125	0.2	SCRAMBLED	0	0.413671666299706	0	0	1497.0	1
303.99072265625	0.2	SCRAMBLED	0	0.296615060475688	0	0	1505.0	1
304.95751953125	0.2	SCRAMBLED	0	0.362519959793644	0	0	1515.0	1
306.27392578125	0.2	FACES	1	0.383066548743955	0	0	1523.0	1
307.59912109375	0.2	SCRAMBLED	0	0.428973923227659	0	0	1531.0	1
308.91552734375	0.2	FACES	1	0.318816086160041	0	0	1539.0	1
309.91552734375	0.2	SCRAMBLED	0	0.429363610843666	0	0	1548.0	1
311.1318359375	0.2	SCRAMBLED	0	n/a	0	1	1556.0	0
312.298828125	0.2	SCRAMBLED	0	0.397940179479519	0	0	1564.0	1
313.3486328125	0.2	FACES	1	0.383382886948311	0	0	1572.0	1
314.51513671875	0.2	FACES	1	0.434919149629877	0	0	1580.0	1
315.5986328125	0.2	FACES	1	0.4834012997635	0	0	1588.0	1
316.7900390625	0.2	SCRAMBLED	0	0.42916680501412	0	0	1596.0	1
317.87353515625	0.2	SCRAMBLED	0	0.429325879664702	0	0	1604.0	1
318.98974609375	0.2	FACES	1	0.399991850065362	0	0	1612.0	1
320.22314453125	0.2	FACES	1	0.359561835365184	0	0	1620.0	1
321.52294921875	0.2	FACES	1	0.284730946509626	0	0	1628.0	1
322.556640625	0.2	SCRAMBLED	0	0.437688920012988	0	0	1636.0	1
323.90625	0.2	SCRAMBLED	0	0.397104358403794	0	0	1644.0	1
324.97314453125	0.2	FACES	1	0.39175347353239	0	0	1652.0	1
326.07275390625	0.2	FACES	1	0.391707894268166	0	0	1660.0	1
327.2314453125	0.2	FACES	1	0.342253788964626	0	0	1668.0	1
328.28125	0.2	FACES	1	0.307263402869467	0	0	1676.0	1
329.38134765625	0.2	SCRAMBLED	0	0.446345056159316	0	0	1684.0	1
330.74755859375	0.2	SCRAMBLED	0	0.343743415909103	0	0	1692.0	1
331.99755859375	0.2	SCRAMBLED	0	0.33930773851398	0	0	1700.0	1
333.01416015625	0.2	SCRAMBLED	0	0.352858363191444	0	0	1708.0	1
334.24755859375	0.2	FACES	1	0.483381981400271	0	0	1716.0	1
335.53076171875	0.2	SCRAMBLED	0	0.396949811495233	0	0	1724.0	1
336.70556640625	0.2	FACES	1	0.434492334533843	0	0	1732.0	1
337.85546875	0.2	FACES	1	0.417455650772354	0	0	1740.0	1
339.17236328125	0.2	FACES	1	0.409958616442964	0	0	1748.0	1
340.3720703125	0.2	SCRAMBLED	0	0.405386503104182	0	0	1756.0	1
341.5556640625	0.2	FACES	1	0.393315544340112	0	0	1764.0	1
342.77197265625	0.2	FACES	1	0.368233365832566	0	0	1772.0	1
344.00537109375	0.2	SCRAMBLED	0	0.445179313654535	0	0	1780.0	1
345.3720703125	0.2	SCRAMBLED	0	0.378691241234719	0	0	1788.0	1
346.455078125	0.2	SCRAMBLED	0	0.361518423380403	0	0	1796.0	1
347.5634765625	0.2	FACES	1	0.500553290007701	0	0	1804.0	1
349.013671875	0.2	SCRAMBLED	0	0.387921796849241	0	0	1812.0	1
350.26318359375	0.2	FACES	1	0.467714486660043	0	0	1820.0	1
351.5634765625	0.2	SCRAMBLED	0	0.395957028714747	0	0	1828.0	1
352.79638671875	0.2	FACES	1	0.359470073138255	0	0	1836.0	1
354.11328125	0.2	FACES	1	0.351403448931251	0	0	1844.0	1
355.4130859375	0.2	FACES	1	0.368299169008424	0	0	1852.0	1
356.4462890625	0.2	FACES	1	0.424477272247259	0	0	1860.0	1
357.771484375	0.2	SCRAMBLED	0	0.496890045307737	0	0	1868.0	1
358.93798828125	0.2	SCRAMBLED	0	0.404127790975508	0	0	1876.0	1
360.0380859375	0.2	FACES	1	0.40900537593825	0	0	1884.0	1
361.3046875	0.2	SCRAMBLED	0	0.412679185368688	0	0	1892.0	1
362.6376953125	0.2	FACES	1	n/a	0	1	1900.0	0
363.95458984375	0.2	FACES	1	0.868752245004998	0	0	1908.0	1
365.53759765625	0.2	SCRAMBLED	0	0.428176437029833	0	0	1914.0	1
366.6708984375	0.2	SCRAMBLED	0	0.445475427946803	0	0	1922.0	1
367.92919921875	0.2	SCRAMBLED	0	0.396659734191417	0	0	1930.0	1
369.2958984375	0.2	SCRAMBLED	0	0.337291082461888	0	0	1938.0	1
370.345703125	0.2	FACES	1	0.549088263792328	0	0	1946.0	1
371.72900390625	0.2	SCRAMBLED	0	0.404653612684797	0	0	1954.0	1
373.06201171875	0.2	SCRAMBLED	0	0.421454250190891	0	0	1962.0	1
374.21240234375	0.2	FACES	1	0.374583070472454	0	0	1970.0	1
375.4287109375	0.2	FACES	1	0.38514961167084	0	0	1978.0	1
376.6455078125	0.2	SCRAMBLED	0	0.379830420989492	0	0	1986.0	1
377.97021484375	0.2	FACES	1	0.300581965703714	0	0	1994.0	1
379.103515625	0.2	SCRAMBLED	0	0.404877886812301	0	0	2002.0	1
380.18701171875	0.2	FACES	1	0.408350664521549	0	0	2010.0	1
381.50341796875	0.2	SCRAMBLED	0	0.404892677434873	0	0	2018.0	1
382.8369140625	0.2	FACES	1	0.292787911534106	0	0	2026.0	1
383.98681640625	0.2	FACES	1	0.434943297584141	0	0	2034.0	1
385.33642578125	0.2	FACES	1	0.391774602992427	0	0	2042.0	1
386.58642578125	0.2	FACES	1	0.368686743678609	0	0	2050.0	1
387.794921875	0.2	FACES	1	0.526227998949253	0	0	2058.0	1
388.97802734375	0.2	SCRAMBLED	0	0.420037067110115	0	0	2066.0	1
390.16162109375	0.2	SCRAMBLED	0	0.39471310720819	0	0	2074.0	1
391.46142578125	0.2	SCRAMBLED	0	0.313488443694496	0	0	2082.0	1
392.611328125	0.2	SCRAMBLED	0	0.35378745574144	0	0	2090.0	1
393.861328125	0.2	SCRAMBLED	0	0.453312948435268	0	0	2098.0	1
n/a	0.2	SCRAMBLED	0	0.371490321198053	1	0	n/a	1
396.4609375	0.2	SCRAMBLED	0	0.296699880165761	0	0	2106.0	1
397.5693359375	0.2	SCRAMBLED	0	0.331345554210657	0	0	2114.0	1
398.7861328125	0.2	FACES	1	0.443253816131346	0	0	2122.0	1
400.18603515625	0.2	SCRAMBLED	0	0.404917429088073	0	0	2130.0	1
401.40234375	0.2	FACES	1	0.374974871035192	0	0	2138.0	1
402.55224609375	0.2	FACES	1	0.494041492223005	0	0	2146.0	1
403.80224609375	0.2	SCRAMBLED	0	0.454210648644221	0	0	2154.0	1
405.01904296875	0.2	FACES	1	0.366044051906101	0	0	2162.0	1
406.10205078125	0.2	SCRAMBLED	0	0.478668602527705	0	0	2170.0	1
407.33544921875	0.2	FACES	1	0.349872468615558	0	0	2178.0	1
408.47705078125	0.2	FACES	1	0.341945600695453	0	0	2186.0	1
409.69384765625	0.2	FACES	1	0.302304620408904	0	0	2194.0	1
410.8271484375	0.2	SCRAMBLED	0	0.397492234923448	0	0	2202.0	1
412.06005859375	0.2	SCRAMBLED	0	0.438051743029519	0	0	2210.0	1
413.3935546875	0.2	FACES	1	0.383597803743214	0	0	2218.0	1
414.72705078125	0.2	FACES	1	0.385521188321036	0	0	2226.0	1
416.04345703125	0.2	FACES	1	0.343026221660239	0	0	2234.0	1
417.32666015625	0.2	SCRAMBLED	0	0.462828148063181	0	0	2242.0	1
442.73388671875	0.2	SCRAMBLED	0	0.55360212019059	0	0	2246.0	1
444.06689453125	0.2	FACES	1	0.343477788409473	0	0	2254.0	1
445.1337890625	0.2	SCRAMBLED	0	0.37891279871792	0	0	2262.0	1
446.25	0.2	SCRAMBLED	0	0.320233872939752	0	0	2270.0	1
447.400390625	0.2	FACES	1	0.383767744973284	0	0	2278.0	1
448.70849609375	0.2	SCRAMBLED	0	0.455675222085574	0	0	2286.0	1
449.875	0.2	SCRAMBLED	0	0.420879227024216	0	0	2294.0	1
451.22509765625	0.2	SCRAMBLED	0	0.413641179507067	0	0	2302.0	1
452.49169921875	0.2	SCRAMBLED	0	0.345688533645898	0	0	2310.0	1
453.724609375	0.2	FACES	1	0.343710514321174	0	0	2318.0	1
454.85791015625	0.2	SCRAMBLED	0	0.54766594927105	0	0	2326.0	1
456.2080078125	0.2	SCRAMBLED	0	0.345827988083329	0	0	2334.0	1
457.44140625	0.2	FACES	1	0.435418106740144	0	0	2342.0	1
458.849609375	0.2	SCRAMBLED	0	0.422035612195941	0	0	2350.0	1
460.1494140625	0.2	FACES	1	0.426064698407117	0	0	2358.0	1
461.28271484375	0.2	SCRAMBLED	0	0.421251709222361	0	0	2366.0	1
462.46630859375	0.2	FACES	1	0.36613521043455	0	0	2374.0	1
463.7158203125	0.2	FACES	1	0.451326477326802	0	0	2382.0	1
464.83251953125	0.2	FACES	1	0.383653947737912	0	0	2390.0	1
466.13232421875	0.2	FACES	1	0.451856826777657	0	0	2398.0	1
467.53271484375	0.2	FACES	1	0.418717985094645	0	0	2406.0	1
468.69091796875	0.2	FACES	1	0.372877621185125	0	0	2414.0	1
469.9072265625	0.2	SCRAMBLED	0	0.421430102236627	0	0	2422.0	1
471.140625	0.2	SCRAMBLED	0	0.388247190536731	0	0	2430.0	1
472.1904296875	0.2	FACES	1	0.533650476469575	0	0	2438.0	1
473.45703125	0.2	FACES	1	0.482726968133647	0	0	2446.0	1
474.80712890625	0.2	FACES	1	0.35150637958759	0	0	2454.0	1
475.9404296875	0.2	FACES	1	0.326571503602736	0	0	2462.0	1
477.1904296875	0.2	SCRAMBLED	0	0.546718443905775	0	0	2470.0	1
478.4404296875	0.2	SCRAMBLED	0	0.369912554219354	0	0	2478.0	1
479.51513671875	0.2	SCRAMBLED	0	0.354054894337423	0	0	2486.0	1
480.6650390625	0.2	FACES	1	0.435390034742795	0	0	2494.0	1
481.931640625	0.2	SCRAMBLED	0	0.321552049406819	0	0	2502.0	1
483.115234375	0.2	FACES	1	0.510112861502421	0	0	2510.0	1
484.53173828125	0.2	SCRAMBLED	0	0.396369053189119	0	0	2518.0	1
485.79833984375	0.2	SCRAMBLED	0	0.386157486922457	0	0	2526.0	1
486.9150390625	0.2	SCRAMBLED	0	0.321041622018129	0	0	2534.0	1
488.14794921875	0.2	FACES	1	0.342887069071821	0	0	2542.0	1
489.45654296875	0.2	FACES	1	0.508463556208881	0	0	2550.0	1
490.77294921875	0.2	SCRAMBLED	0	0.421886196727428	0	0	2558.0	1
491.90625	0.2	FACES	1	0.433417448708497	0	0	2566.0	1
493.1396484375	0.2	FACES	1	0.509969784871828	0	0	2574.0	1
494.439453125	0.2	SCRAMBLED	0	0.446092710034463	0	0	2582.0	1
495.63916015625	0.2	SCRAMBLED	0	0.417934685820001	0	0	2590.0	1
496.939453125	0.2	FACES	1	0.32533543018053	0	0	2598.0	1
497.9560546875	0.2	SCRAMBLED	0	0.412248144380555	0	0	2606.0	1
499.17236328125	0.2	FACES	1	0.475473828144914	0	0	2614.0	1
500.51416015625	0.2	FACES	1	0.309361256418015	0	0	2622.0	1
501.76416015625	0.2	SCRAMBLED	0	0.422366741022415	0	0	2630.0	1
502.84716796875	0.2	FACES	1	0.433117410373143	0	0	2638.0	1
504.11376953125	0.2	SCRAMBLED	0	0.396241069029657	0	0	2646.0	1
505.447265625	0.2	SCRAMBLED	0	0.478422897090695	0	0	2654.0	1
506.6806640625	0.2	FACES	1	0.43296075051876	0	0	2662.0	1
507.89697265625	0.2	FACES	1	0.299129768088733	0	0	2670.0	1
508.89697265625	0.2	FACES	1	0.391058616141436	0	0	2679.0	1
510.1552734375	0.2	FACES	1	0.400604604411456	0	0	2687.0	1
511.421875	0.2	FACES	1	0.299558997980967	0	0	2695.0	1
512.55517578125	0.2	FACES	1	0.335349285069697	0	0	2703.0	1
513.77197265625	0.2	SCRAMBLED	0	0.506027631297002	0	0	2711.0	1
515.03857421875	0.2	SCRAMBLED	0	0.379178728066563	0	0	2719.0	1
516.13818359375	0.2	FACES	1	0.400354974931361	0	0	2727.0	1
517.2216796875	0.2	FACES	1	0.374649477347702	0	0	2735.0	1
518.33837890625	0.2	FACES	1	0.316462264293477	0	0	2743.0	1
519.5380859375	0.2	SCRAMBLED	0	0.413506252810748	0	0	2751.0	1
520.74658203125	0.2	SCRAMBLED	0	0.445793879096982	0	0	2759.0	1
522.07958984375	0.2	FACES	1	0.493586605129622	0	0	2767.0	1
523.2294921875	0.2	FACES	1	0.417124220096412	0	0	2775.0	1
524.52978515625	0.2	SCRAMBLED	0	0.445431056080452	0	0	2783.0	1
525.7294921875	0.2	FACES	1	0.407926566070273	0	0	2791.0	1
526.84619140625	0.2	FACES	1	0.425102100570257	0	0	2799.0	1
528.12939453125	0.2	FACES	1	0.351460498474353	0	0	2807.0	1
529.12939453125	0.2	FACES	1	0.383845622126501	0	0	2816.0	1
530.4541015625	0.2	FACES	1	0.350169790305245	0	0	2824.0	1
531.77099609375	0.2	SCRAMBLED	0	0.43832823710909	0	0	2832.0	1
532.87060546875	0.2	SCRAMBLED	0	0.46224618235965	0	0	2840.0	1
534.07080078125	0.2	FACES	1	0.392098487432577	0	0	2848.0	1
535.28759765625	0.2	SCRAMBLED	0	0.387596403161751	0	0	2856.0	1
536.58740234375	0.2	FACES	1	0.360066225764967	0	0	2864.0	1
537.90380859375	0.2	SCRAMBLED	0	0.496465946856006	0	0	2872.0	1
539.3203125	0.2	SCRAMBLED	0	0.395571868840307	0	0	2880.0	1
540.4287109375	0.2	FACES	1	0.424771877292187	0	0	2888.0	1
541.6787109375	0.2	SCRAMBLED	0	0.429695947067557	0	0	2896.0	1
542.79541015625	0.2	FACES	1	0.309264060901114	0	0	2904.0	1
544.01171875	0.2	SCRAMBLED	0	0.313178142478591	0	0	2912.0	1
n/a	0.2	SCRAMBLED	0	n/a	1	1	n/a	0
n/a	0.2	FACES	1	0.358147972628558	1	0	n/a	1
547.5283203125	0.2	FACES	1	0.340094659981787	0	0	2920.0	1
548.7119140625	0.2	SCRAMBLED	0	0.403629739413191	0	0	2928.0	1
550.0283203125	0.2	SCRAMBLED	0	0.438422715980778	0	0	2936.0	1
551.35302734375	0.2	FACES	1	0.317355436760863	0	0	2944.0	1
552.4033203125	0.2	SCRAMBLED	0	0.387510074224792	0	0	2952.0	1
553.703125	0.2	SCRAMBLED	0	0.384295981478772	0	0	2960.0	1
555.01953125	0.2	SCRAMBLED	0	0.362953415577522	0	0	2968.0	1
556.26953125	0.2	FACES	1	0.41491770075254	0	0	2976.0	1
557.58642578125	0.2	FACES	1	0.47709747623685	0	0	2984.0	1
558.95263671875	0.2	FACES	1	0.433630252557123	0	0	2992.0	1
n/a	0.2	FACES	1	0.36752522706638	1	0	n/a	1
561.64453125	0.2	SCRAMBLED	0	0.471916532595515	0	0	3000.0	1
563.02783203125	0.2	SCRAMBLED	0	0.363702304016442	0	0	3008.0	1
564.2607421875	0.2	FACES	1	0.375989688823665	0	0	3016.0	1
565.5107421875	0.2	FACES	1	0.49192552770819	0	0	3024.0	1
566.7607421875	0.2	FACES	1	0.416455019907062	0	0	3032.0	1
567.84423828125	0.2	SCRAMBLED	0	0.470701588633347	0	0	3040.0	1
569.17724609375	0.2	SCRAMBLED	0	0.355169020589074	0	0	3048.0	1
570.50244140625	0.2	SCRAMBLED	0	0.362352131509851	0	0	3056.0	1
571.6689453125	0.2	SCRAMBLED	0	0.638255491395739	0	0	3064.0	1
572.9853515625	0.2	SCRAMBLED	0	0.370468862722191	0	0	3072.0	1
574.30224609375	0.2	SCRAMBLED	0	0.2642643476579	0	0	3080.0	1
575.251953125	0.2	FACES	1	0.417123012698539	0	0	3090.0	1
576.46875	0.2	SCRAMBLED	0	0.403456175990414	0	0	3098.0	1
577.68505859375	0.2	FACES	1	0.409911527931399	0	0	3106.0	1
579.001953125	0.2	SCRAMBLED	0	0.396188245379562	0	0	3114.0	1
580.068359375	0.2	SCRAMBLED	0	0.470364120969407	0	0	3122.0	1
581.443359375	0.2	FACES	1	0.433907652185098	0	0	3130.0	1
582.6435546875	0.2	FACES	1	0.575468394855307	0	0	3138.0	1
584.09326171875	0.2	SCRAMBLED	0	0.588218514840264	0	0	3146.0	1
585.54296875	0.2	SCRAMBLED	0	0.41312712992476	0	0	3154.0	1
586.89306640625	0.2	SCRAMBLED	0	0.420917863751129	0	0	3162.0	1
588.2763671875	0.2	SCRAMBLED	0	0.411818612639763	0	0	3170.0	1
589.62646484375	0.2	SCRAMBLED	0	0.389031395359325	0	0	3178.0	1
590.734375	0.2	FACES	1	0.54192356568683	0	0	3186.0	1
591.9345703125	0.2	FACES	1	0.449561865550095	0	0	3194.0	1
593.33447265625	0.2	FACES	1	0.459566061257192	0	0	3202.0	1
594.701171875	0.2	FACES	1	0.341400460622481	0	0	3210.0	1
595.85107421875	0.2	FACES	1	0.384962766872377	0	0	3218.0	1
597.017578125	0.2	SCRAMBLED	0	0.513726602895986	0	0	3226.0	1
598.20068359375	0.2	SCRAMBLED	0	0.460563673628258	0	0	3234.0	1
599.3505859375	0.2	SCRAMBLED	0	0.39476653455722	0	0	3242.0	1
600.65087890625	0.2	FACES	1	0.410414409084296	0	0	3250.0	1
601.9423828125	0.2	SCRAMBLED	0	0.422710245675262	0	0	3258.0	1
603.2255859375	0.2	FACES	1	0.426865203099169	0	0	3266.0	1
604.60888671875	0.2	SCRAMBLED	0	0.471174284843528	0	0	3274.0	1
606.0419921875	0.2	FACES	1	0.409725286832327	0	0	3282.0	1
607.40869140625	0.2	FACES	1	0.450615018216467	0	0	3290.0	1
608.62548828125	0.2	SCRAMBLED	0	0.444769703976363	0	0	3298.0	1
609.97509765625	0.2	SCRAMBLED	0	0.612565388133135	0	0	3306.0	1
611.30029296875	0.2	FACES	1	0.558478799605382	0	0	3314.0	1
612.58349609375	0.2	SCRAMBLED	0	0.437130800413797	0	0	3322.0	1
613.9501953125	0.2	SCRAMBLED	0	0.446550011923136	0	0	3330.0	1
615.08349609375	0.2	SCRAMBLED	0	0.370734490221366	0	0	3338.0	1
616.2666015625	0.2	SCRAMBLED	0	0.413518930487498	0	0	3346.0	1
617.43310546875	0.2	FACES	1	0.399603671696696	0	0	3354.0	1
618.61669921875	0.2	FACES	1	0.634039862236023	0	0	3362.0	1
620.0830078125	0.2	FACES	1	0.458543395383458	0	0	3370.0	1
621.5078125	0.2	SCRAMBLED	0	0.405103066488664	0	0	3378.0	1
622.64111328125	0.2	FACES	1	0.591424155802542	0	0	3386.0	1
623.974609375	0.2	SCRAMBLED	0	0.470563643443256	0	0	3394.0	1
625.37451171875	0.2	FACES	1	0.558919801624597	0	0	3402.0	1
626.7412109375	0.2	SCRAMBLED	0	0.529485256164207	0	0	3410.0	1
627.95751953125	0.2	FACES	1	0.558821398709824	0	0	3418.0	1
n/a	0.2	FACES	1	0.658830756042335	1	0	n/a	1
658.14794921875	0.2	SCRAMBLED	0	0.521917287218457	0	0	3425.0	1
659.5478515625	0.2	FACES	1	0.384363897600906	0	0	3433.0	1
660.630859375	0.2	SCRAMBLED	0	0.479034142188993	0	0	3441.0	1
662.05615234375	0.2	SCRAMBLED	0	0.437092163686884	0	0	3449.0	1
663.32275390625	0.2	SCRAMBLED	0	0.429756920652835	0	0	3457.0	1
664.43896484375	0.2	FACES	1	0.43399911256256	0	0	3465.0	1
665.8056640625	0.2	FACES	1	0.47634375820644	0	0	3473.0	1
667.0556640625	0.2	SCRAMBLED	0	0.355667675849872	0	0	3481.0	1
668.072265625	0.2	FACES	1	0.433590408432337	0	0	3489.0	1
669.45556640625	0.2	FACES	1	0.425529217515759	0	0	3497.0	1
670.65576171875	0.2	SCRAMBLED	0	0.620657669541288	0	0	3505.0	1
672.14697265625	0.2	SCRAMBLED	0	0.370941860780931	0	0	3513.0	1
673.36376953125	0.2	SCRAMBLED	0	0.480599231491396	0	0	3521.0	1
674.66357421875	0.2	SCRAMBLED	0	0.389500469375889	0	0	3529.0	1
675.830078125	0.2	SCRAMBLED	0	0.522707227180945	0	0	3537.0	1
677.3134765625	0.2	FACES	1	0.443207331319172	0	0	3545.0	1
678.5634765625	0.2	FACES	1	0.700509219991091	0	0	3553.0	1
680.146484375	0.2	SCRAMBLED	0	0.385232922113573	0	0	3559.0	1
681.36328125	0.2	FACES	1	0.442227226214982	0	0	3567.0	1
682.7216796875	0.2	FACES	1	0.450786770542891	0	0	3575.0	1
683.98828125	0.2	FACES	1	0.375981538888936	0	0	3583.0	1
685.271484375	0.2	FACES	1	0.408470800595296	0	0	3591.0	1
686.48828125	0.2	FACES	1	0.350433304858598	0	0	3599.0	1
687.67138671875	0.2	SCRAMBLED	0	0.421950188806932	0	0	3607.0	1
688.771484375	0.2	FACES	1	0.575735531602277	0	0	3615.0	1
690.1044921875	0.2	SCRAMBLED	0	0.361676894331595	0	0	3623.0	1
691.4208984375	0.2	FACES	1	0.392578428028628	0	0	3631.0	1
692.7626953125	0.2	FACES	1	0.402399401130424	0	0	3639.0	1
693.89599609375	0.2	SCRAMBLED	0	0.403546730819471	0	0	3647.0	1
694.9794921875	0.2	SCRAMBLED	0	0.412476644400613	0	0	3655.0	1
696.16259765625	0.2	FACES	1	0.500436172428635	0	0	3663.0	1
697.5791015625	0.2	FACES	1	0.376494682922385	0	0	3671.0	1
698.74560546875	0.2	FACES	1	0.367495343972678	0	0	3679.0	1
699.92919921875	0.2	SCRAMBLED	0	0.512294327343625	0	0	3687.0	1
701.17919921875	0.2	SCRAMBLED	0	0.495450827218519	0	0	3695.0	1
702.537109375	0.2	FACES	1	0.416508447256547	0	0	3703.0	1
703.62060546875	0.2	SCRAMBLED	0	0.529267924574015	0	0	3711.0	1
705.0703125	0.2	SCRAMBLED	0	0.430829693531905	0	0	3719.0	1
706.18701171875	0.2	SCRAMBLED	0	0.40402063442707	0	0	3727.0	1
707.287109375	0.2	FACES	1	0.398549613481919	0	0	3735.0	1
708.48681640625	0.2	SCRAMBLED	0	0.379857587438437	0	0	3743.0	1
709.75341796875	0.2	FACES	1	0.442968870268032	0	0	3751.0	1
711.1201171875	0.2	FACES	1	0.467539715838939	0	0	3759.0	1
712.4365234375	0.2	SCRAMBLED	0	0.346772474953923	0	0	3767.0	1
713.44482421875	0.2	SCRAMBLED	0	0.436700363125055	0	0	3775.0	1
714.69482421875	0.2	FACES	1	0.361495482823102	0	0	3783.0	1
715.72802734375	0.2	FACES	1	0.450701649003349	0	0	3791.0	1
717.0615234375	0.2	FACES	1	0.359806333404777	0	0	3799.0	1
718.111328125	0.2	SCRAMBLED	0	0.462126649984384	0	0	3807.0	1
719.41162109375	0.2	SCRAMBLED	0	0.428287819469915	0	0	3815.0	1
720.611328125	0.2	FACES	1	0.383840188836984	0	0	3823.0	1
721.6611328125	0.2	SCRAMBLED	0	0.521060940382085	0	0	3831.0	1
723.08642578125	0.2	SCRAMBLED	0	0.546068863929122	0	0	3839.0	1
724.2861328125	0.2	SCRAMBLED	0	0.428728217790194	0	0	3847.0	1
725.5693359375	0.2	SCRAMBLED	0	0.397265847849667	0	0	3855.0	1
726.8525390625	0.2	SCRAMBLED	0	0.346557860008488	0	0	3863.0	1
727.8857421875	0.2	SCRAMBLED	0	0.363379626974165	0	0	3871.0	1
729.0361328125	0.2	SCRAMBLED	0	0.389056750711461	0	0	3879.0	1
730.3359375	0.2	FACES	1	0.391843726511979	0	0	3887.0	1
731.48583984375	0.2	FACES	1	0.399015669003802	0	0	3895.0	1
732.53564453125	0.2	FACES	1	0.433583465895481	0	0	3903.0	1
733.7607421875	0.2	FACES	1	0.368870268132468	0	0	3911.0	1
734.94384765625	0.2	FACES	1	0.335313968686023	0	0	3919.0	1
736.1103515625	0.2	FACES	1	0.334960804851107	0	0	3927.0	1
737.19384765625	0.2	FACES	1	0.359388573791421	0	0	3935.0	1
738.310546875	0.2	FACES	1	0.333945685213166	0	0	3943.0	1
739.49365234375	0.2	FACES	1	0.359308281842914	0	0	3951.0	1
740.74365234375	0.2	FACES	1	0.33518689007542	0	0	3959.0	1
741.81005859375	0.2	SCRAMBLED	0	0.520973705895813	0	0	3967.0	1
743.18505859375	0.2	SCRAMBLED	0	0.336857324829452	0	0	3975.0	1
744.3017578125	0.2	SCRAMBLED	0	0.547441976993014	0	0	3983.0	1
745.70166015625	0.2	SCRAMBLED	0	0.404851324062292	0	0	3991.0	1
n/a	0.2	FACES	1	0.700108665795597	1	0	n/a	1
748.3017578125	0.2	SCRAMBLED	0	0.454309957107398	0	0	3999.0	1
749.45166015625	0.2	SCRAMBLED	0	0.427861608072362	0	0	4007.0	1
750.75146484375	0.2	FACES	1	0.402008506116999	0	0	4015.0	1
752.1181640625	0.2	FACES	1	0.325200201635653	0	0	4023.0	1
753.259765625	0.2	SCRAMBLED	0	0.438099133390097	0	0	4031.0	1
754.40966796875	0.2	FACES	1	0.542335288311278	0	0	4039.0	1
755.7763671875	0.2	FACES	1	0.368229743639404	0	0	4047.0	1
756.92626953125	0.2	SCRAMBLED	0	0.405521731649969	0	0	4055.0	1
758.142578125	0.2	FACES	1	0.39367474516348	0	0	4063.0	1
759.326171875	0.2	SCRAMBLED	0	0.421856011783802	0	0	4071.0	1
760.67578125	0.2	FACES	1	0.37676332891624	0	0	4079.0	1
761.99267578125	0.2	SCRAMBLED	0	0.438559151923982	0	0	4087.0	1
763.1923828125	0.2	SCRAMBLED	0	0.544733180194726	0	0	4095.0	1
764.55078125	0.2	SCRAMBLED	0	0.397135750744837	0	0	4103.0	1
765.6005859375	0.2	FACES	1	0.44325472167975	0	0	4111.0	1
766.73388671875	0.2	SCRAMBLED	0	0.588005107292247	0	0	4119.0	1
768.03369140625	0.2	SCRAMBLED	0	0.462665451219436	0	0	4127.0	1
769.30029296875	0.2	FACES	1	0.39244501057965	0	0	4135.0	1
770.51708984375	0.2	FACES	1	0.492363813082648	0	0	4143.0	1
771.98388671875	0.2	SCRAMBLED	0	0.488172633726663	0	0	4151.0	1
773.28369140625	0.2	SCRAMBLED	0	0.479702436830394	0	0	4159.0	1
774.67529296875	0.2	FACES	1	0.410459686499507	0	0	4167.0	1
775.74169921875	0.2	FACES	1	0.350755378202393	0	0	4175.0	1
776.7919921875	0.2	SCRAMBLED	0	0.512729594223856	0	0	4183.0	1
778.02490234375	0.2	FACES	1	0.433866298812973	0	0	4191.0	1
779.24169921875	0.2	SCRAMBLED	0	0.36184593001326	0	0	4199.0	1
780.25830078125	0.2	FACES	1	0.732361881246561	0	0	4207.0	1
781.82470703125	0.2	FACES	1	0.308748200222908	0	0	4213.0	1
782.94140625	0.2	SCRAMBLED	0	0.405513883564709	0	0	4221.0	1
784.31640625	0.2	SCRAMBLED	0	0.455050091913108	0	0	4229.0	1
785.533203125	0.2	FACES	1	0.442174100714965	0	0	4237.0	1
786.74951171875	0.2	SCRAMBLED	0	0.455697860793407	0	0	4245.0	1
788.099609375	0.2	FACES	1	0.31849008877407	0	0	4253.0	1
789.099609375	0.2	FACES	1	0.417480402425554	0	0	4262.0	1
790.31591796875	0.2	SCRAMBLED	0	0.378589819826175	0	0	4270.0	1
791.3662109375	0.2	SCRAMBLED	0	0.444980394879622	0	0	4278.0	1
792.69921875	0.2	SCRAMBLED	0	0.429725528311792	0	0	4286.0	1
794.041015625	0.2	FACES	1	0.368636636672818	0	0	4294.0	1
795.17431640625	0.2	SCRAMBLED	0	0.437437479436539	0	0	4302.0	1
796.357421875	0.2	SCRAMBLED	0	0.462350924111888	0	0	4310.0	1
797.640625	0.2	SCRAMBLED	0	0.553874690227076	0	0	4318.0	1
799.04052734375	0.2	FACES	1	0.385052114304017	0	0	4326.0	1
800.24072265625	0.2	SCRAMBLED	0	0.378602195653002	0	0	4334.0	1
801.4072265625	0.2	SCRAMBLED	0	0.437527128717647	0	0	4342.0	1
802.57373046875	0.2	FACES	1	0.491349598993111	0	0	4350.0	1
803.82373046875	0.2	FACES	1	0.449352382044708	0	0	4358.0	1
805.24853515625	0.2	FACES	1	0.309071782813589	0	0	4366.0	1
806.48193359375	0.2	SCRAMBLED	0	0.446721160550624	0	0	4374.0	1
807.6484375	0.2	SCRAMBLED	0	0.379156693058576	0	0	4382.0	1
808.681640625	0.2	SCRAMBLED	0	0.361826309800108	0	0	4390.0	1
809.98193359375	0.2	SCRAMBLED	0	0.320985478023886	0	0	4398.0	1
810.96484375	0.2	SCRAMBLED	0	0.361929844155384	0	0	4408.0	1
812.03173828125	0.2	FACES	1	0.45845133130706	0	0	4416.0	1
813.2314453125	0.2	SCRAMBLED	0	0.402904697079066	0	0	4424.0	1
814.6064453125	0.2	FACES	1	0.492181797875674	0	0	4432.0	1
816.00634765625	0.2	FACES	1	0.509572551020028	0	0	4440.0	1
817.28955078125	0.2	SCRAMBLED	0	0.396613249378788	0	0	4448.0	1
818.65625	0.2	SCRAMBLED	0	0.363823949337529	0	0	4456.0	1
819.82275390625	0.2	FACES	1	0.460221980071765	0	0	4464.0	1
821.1396484375	0.2	SCRAMBLED	0	0.471105463172989	0	0	4472.0	1
822.4892578125	0.2	FACES	1	0.308665493478657	0	0	4480.0	1
823.65625	0.2	FACES	1	0.451893350558748	0	0	4488.0	1
825.0810546875	0.2	FACES	1	0.352901829509392	0	0	4496.0	1
826.3974609375	0.2	SCRAMBLED	0	0.478685204246176	0	0	4504.0	1
827.54736328125	0.2	FACES	1	0.341439399198862	0	0	4512.0	1
828.6806640625	0.2	FACES	1	0.335288009634951	0	0	4520.0	1
829.697265625	0.2	SCRAMBLED	0	0.420585527526782	0	0	4528.0	1
830.83056640625	0.2	SCRAMBLED	0	0.453881632764023	0	0	4536.0	1
832.1640625	0.2	FACES	1	0.293662369336744	0	0	4544.0	1
833.28076171875	0.2	FACES	1	0.335096938944844	0	0	4552.0	1
834.5556640625	0.2	FACES	1	0.359075254081745	0	0	4560.0	1
835.6220703125	0.2	FACES	1	0.292985924761069	0	0	4568.0	1
836.75537109375	0.2	SCRAMBLED	0	0.421115575128624	0	0	4576.0	1
837.8388671875	0.2	SCRAMBLED	0	0.388056421695637	0	0	4584.0	1
839.03857421875	0.2	FACES	1	0.399874732486296	0	0	4592.0	1
840.171875	0.2	FACES	1	0.316652731284648	0	0	4600.0	1
