onset	duration	trial_type	trial_type_id	response_time	bad_epoch	outliers	direction	name_direction	event_num	response_accuracy
93.1376953125	0.2	RANDOM	0	0.570348849493712	0	0	0	NONE	1.0	1
94.52734375	0.2	COHERENT	1	0.514322841989724	0	0	180	LEFT	5.0	1
95.87744140625	0.2	COHERENT	1	0.564107169268937	0	0	180	LEFT	9.0	1
n/a	0.2	COHERENT	1	0.633063578929523	1	0	180	LEFT	n/a	1
98.3974609375	0.2	COHERENT	1	0.637803851017907	0	0	180	LEFT	13.0	1
99.92724609375	0.2	RANDOM	0	0.559567326412889	0	0	0	NONE	16.0	1
101.34716796875	0.2	COHERENT	1	0.729368315881402	0	0	180	LEFT	20.0	1
102.69677734375	0.2	RANDOM	0	0.713302282900713	0	0	0	NONE	24.0	1
104.0966796875	0.2	RANDOM	0	0.79310179329832	0	0	0	NONE	28.0	1
105.73681640625	0.2	RANDOM	0	0.689856288618103	0	0	0	NONE	31.0	1
107.06640625	0.2	COHERENT	1	0.708739801200863	0	0	0	RIGHT	35.0	1
n/a	0.2	RANDOM	0	0.699160551663226	1	0	0	NONE	n/a	1
110.1064453125	0.2	COHERENT	1	0.694276296526368	0	0	180	LEFT	39.0	1
111.50634765625	0.2	RANDOM	0	0.718092360446917	0	0	0	NONE	43.0	1
112.90625	0.2	RANDOM	0	0.733032790101788	0	0	0	NONE	47.0	1
n/a	0.2	RANDOM	0	0.782823154405833	1	0	0	NONE	n/a	1
115.67578125	0.2	RANDOM	0	0.763564742566359	0	0	0	NONE	51.0	1
117.14599609375	0.2	COHERENT	1	0.708516129421696	0	0	0	RIGHT	55.0	1
118.67578125	0.2	COHERENT	1	0.704931042080716	0	0	180	LEFT	58.0	1
120.04541015625	0.2	RANDOM	0	0.691814397700909	0	0	0	NONE	62.0	1
121.6455078125	0.2	RANDOM	0	0.689803162797489	0	0	0	NONE	65.0	1
123.03515625	0.2	COHERENT	1	0.79864408416779	0	0	0	RIGHT	69.0	1
124.53515625	0.2	RANDOM	0	0.758505715553383	0	0	0	NONE	73.0	1
126.115234375	0.2	RANDOM	0	0.944682437388565	0	0	0	NONE	76.0	1
127.96484375	0.2	RANDOM	0	0.818082097503975	0	0	0	NONE	79.0	1
129.43505859375	0.2	COHERENT	1	0.838818373082177	0	0	0	RIGHT	83.0	1
131.1748046875	0.2	RANDOM	0	0.759465300689044	0	0	0	NONE	86.0	1
132.70458984375	0.2	COHERENT	1	0.774450102478113	0	0	0	RIGHT	89.0	1
134.20458984375	0.2	COHERENT	1	0.784294679267987	0	0	0	RIGHT	93.0	1
135.79443359375	0.2	COHERENT	1	0.77889335293321	0	0	180	LEFT	96.0	1
137.37451171875	0.2	COHERENT	1	0.719774879334636	0	0	0	RIGHT	99.0	1
138.89404296875	0.2	COHERENT	1	0.719583203788716	0	0	180	LEFT	102.0	1
140.4638671875	0.2	COHERENT	1	0.729355034426135	0	0	0	RIGHT	105.0	1
141.81396484375	0.2	RANDOM	0	0.663293981991956	0	0	0	NONE	109.0	1
143.2138671875	0.2	RANDOM	0	0.794090054303069	0	0	0	NONE	113.0	1
144.59375	0.2	RANDOM	0	0.727866605893723	0	0	0	NONE	117.0	1
146.15380859375	0.2	COHERENT	1	0.724741539863771	0	0	0	RIGHT	120.0	1
147.53369140625	0.2	RANDOM	0	0.788562252293559	0	0	0	NONE	124.0	1
149.21337890625	0.2	COHERENT	1	0.749310722662358	0	0	180	LEFT	127.0	1
150.703125	0.2	COHERENT	1	0.65505042425184	0	0	180	LEFT	131.0	1
152.1533203125	0.2	COHERENT	1	0.83000492017527	0	0	180	LEFT	135.0	1
153.69287109375	0.2	RANDOM	0	0.677753260747977	0	0	0	NONE	138.0	1
155.203125	0.2	RANDOM	0	0.709265022382169	0	0	0	NONE	141.0	1
156.642578125	0.2	RANDOM	0	0.904292928530595	0	0	0	NONE	145.0	1
158.2626953125	0.2	RANDOM	0	0.738140717017359	0	0	0	NONE	148.0	1
n/a	0.2	COHERENT	1	0.750024600877168	1	0	180	LEFT	n/a	1
161.24267578125	0.2	RANDOM	0	0.857781574396085	0	0	0	NONE	152.0	1
162.88232421875	0.2	RANDOM	0	0.654619078810356	0	0	0	NONE	155.0	1
164.18212890625	0.2	RANDOM	0	0.738368312862804	0	0	0	NONE	159.0	1
165.662109375	0.2	COHERENT	1	0.739632767764761	0	0	180	LEFT	163.0	1
167.11181640625	0.2	COHERENT	1	0.648034193709918	0	0	0	RIGHT	167.0	1
168.56201171875	0.2	COHERENT	1	0.700824355773875	0	0	0	RIGHT	171.0	1
169.98193359375	0.2	RANDOM	0	0.745360999007062	0	0	0	NONE	175.0	1
171.50146484375	0.2	RANDOM	0	0.763482639024915	0	0	0	NONE	178.0	1
173.12158203125	0.2	COHERENT	1	0.709268342746327	0	0	0	RIGHT	181.0	1
174.44140625	0.2	COHERENT	1	0.70905191539714	0	0	180	LEFT	185.0	1
176.04150390625	0.2	COHERENT	1	0.669972440980473	0	0	0	RIGHT	188.0	1
177.51123046875	0.2	RANDOM	0	0.709978598746147	0	0	0	NONE	192.0	1
178.89111328125	0.2	COHERENT	1	0.752530268134706	0	0	180	LEFT	196.0	1
180.4912109375	0.2	COHERENT	1	0.589331067436888	0	0	180	LEFT	199.0	1
181.9111328125	0.2	RANDOM	0	0.674871788680321	0	0	0	NONE	203.0	1
183.31103515625	0.2	COHERENT	1	0.75393115980296	0	0	180	LEFT	207.0	1
184.91064453125	0.2	COHERENT	1	0.699738596814313	0	0	180	LEFT	210.0	1
186.400390625	0.2	RANDOM	0	0.784565741693768	0	0	0	NONE	214.0	1
187.83056640625	0.2	RANDOM	0	0.9480341937101	0	0	0	NONE	218.0	1
n/a	0.2	RANDOM	0	1.05381585262421	1	0	0	NONE	n/a	1
191.1201171875	0.2	RANDOM	0	0.859008599742538	0	0	0	NONE	221.0	1
192.7001953125	0.2	RANDOM	0	0.834619320291495	0	0	0	NONE	224.0	1
194.2001953125	0.2	RANDOM	0	0.763651373876201	0	0	0	NONE	228.0	1
195.86962890625	0.2	RANDOM	0	0.688475922834641	0	0	0	NONE	231.0	1
197.23974609375	0.2	COHERENT	1	0.783432592087138	0	0	180	LEFT	235.0	1
198.66943359375	0.2	COHERENT	1	0.797961900334485	0	0	180	LEFT	239.0	1
200.11962890625	0.2	RANDOM	0	0.767538916172725	0	0	0	NONE	243.0	1
201.53955078125	0.2	COHERENT	1	0.828558750818502	0	0	0	RIGHT	247.0	1
203.08935546875	0.2	RANDOM	0	0.804210523138408	0	0	0	NONE	250.0	1
204.67919921875	0.2	COHERENT	1	0.725251064780423	0	0	180	LEFT	253.0	1
206.0791015625	0.2	COHERENT	1	0.843044894336799	0	0	180	LEFT	257.0	1
207.7490234375	0.2	RANDOM	0	0.714888209387937	0	0	0	NONE	260.0	1
209.21875	0.2	RANDOM	0	1.0795562182866	0	0	0	NONE	264.0	1
210.96875	0.2	COHERENT	1	0.913103966627204	0	0	0	RIGHT	266.0	1
212.74853515625	0.2	RANDOM	0	0.824211790913523	0	0	0	NONE	269.0	1
214.1982421875	0.2	COHERENT	1	1.05297368762604	0	0	0	RIGHT	273.0	1
215.9384765625	0.2	RANDOM	0	0.832358152549659	0	0	0	NONE	275.0	1
217.48828125	0.2	RANDOM	0	0.825426742210311	0	0	0	NONE	278.0	1
219.16796875	0.2	COHERENT	1	0.81814910848243	0	0	180	LEFT	281.0	1
220.7880859375	0.2	COHERENT	1	0.979068426660433	0	0	180	LEFT	284.0	1
222.52783203125	0.2	COHERENT	1	0.889607563185109	0	0	0	RIGHT	287.0	1
224.07763671875	0.2	RANDOM	0	0.823468029424475	0	0	0	NONE	290.0	1
225.5078125	0.2	COHERENT	1	0.858586611689589	0	0	180	LEFT	294.0	1
227.1474609375	0.2	COHERENT	1	0.834041576991694	0	0	180	LEFT	297.0	1
228.7275390625	0.2	RANDOM	0	0.72908427385164	0	0	0	NONE	300.0	1
230.3671875	0.2	RANDOM	0	0.919941501227186	0	0	0	NONE	303.0	1
232.126953125	0.2	COHERENT	1	0.839590810440768	0	0	0	RIGHT	306.0	1
233.59716796875	0.2	RANDOM	0	0.993464618505186	0	0	0	NONE	310.0	1
235.43701171875	0.2	RANDOM	0	0.83925967961477	0	0	0	NONE	313.0	1
237.056640625	0.2	COHERENT	1	0.925044598522618	0	0	0	RIGHT	316.0	1
238.7666015625	0.2	COHERENT	1	0.790786896033296	0	0	0	RIGHT	319.0	1
240.21630859375	0.2	RANDOM	0	0.778674510774636	0	0	0	NONE	323.0	1
241.62646484375	0.2	COHERENT	1	0.823508477492851	0	0	0	RIGHT	327.0	1
243.08642578125	0.2	RANDOM	0	0.848264808068052	0	0	0	NONE	331.0	1
244.72607421875	0.2	COHERENT	1	0.775039316125913	0	0	0	RIGHT	334.0	1
246.27587890625	0.2	COHERENT	1	0.943845705713102	0	0	0	RIGHT	337.0	1
n/a	0.2	COHERENT	1	0.794701604943384	1	0	0	RIGHT	n/a	1
249.4755859375	0.2	RANDOM	0	0.828481175046363	0	0	0	NONE	341.0	1
251.2158203125	0.2	COHERENT	1	0.728985870342512	0	0	180	LEFT	344.0	1
252.5654296875	0.2	COHERENT	1	0.723488857161101	0	0	0	RIGHT	348.0	1
253.99560546875	0.2	RANDOM	0	0.837923987817248	0	0	0	NONE	352.0	1
255.435546875	0.2	RANDOM	0	0.978418239060375	0	0	0	NONE	356.0	1
257.03515625	0.2	COHERENT	1	0.93348285032107	0	0	0	RIGHT	359.0	1
258.60498046875	0.2	RANDOM	0	0.782836134009813	0	0	0	NONE	362.0	1
260.0849609375	0.2	RANDOM	0	1.11806126976717	0	0	0	NONE	366.0	1
262.02490234375	0.2	RANDOM	0	0.714964879606669	0	0	0	NONE	368.0	1
263.384765625	0.2	COHERENT	1	0.748585374099548	0	0	0	RIGHT	372.0	1
264.9248046875	0.2	COHERENT	1	0.844482611858439	0	0	180	LEFT	375.0	1
266.49462890625	0.2	COHERENT	1	0.744258034525956	0	0	180	LEFT	378.0	1
267.96435546875	0.2	COHERENT	1	0.724007739466288	0	0	0	RIGHT	382.0	1
269.46435546875	0.2	RANDOM	0	0.784973542737589	0	0	0	NONE	386.0	1
271.01416015625	0.2	RANDOM	0	0.78472813766848	0	0	0	NONE	389.0	1
272.583984375	0.2	COHERENT	1	0.765094222868811	0	0	180	LEFT	392.0	1
274.06396484375	0.2	COHERENT	1	0.723295068656171	0	0	0	RIGHT	396.0	1
275.61376953125	0.2	RANDOM	0	0.834217254421674	0	0	0	NONE	399.0	1
277.33349609375	0.2	RANDOM	0	0.894947311863689	0	0	0	NONE	402.0	1
278.9033203125	0.2	RANDOM	0	1.00229678618962	0	0	0	NONE	405.0	1
280.7734375	0.2	COHERENT	1	0.774444669155855	0	0	0	RIGHT	407.0	1
282.17333984375	0.2	COHERENT	1	0.773013894213364	0	0	0	RIGHT	411.0	1
283.623046875	0.2	COHERENT	1	0.723048758032746	0	0	180	LEFT	415.0	1
285.1728515625	0.2	COHERENT	1	0.864802634557691	0	0	180	LEFT	418.0	1
286.94287109375	0.2	COHERENT	1	0.769608106517353	0	0	0	RIGHT	421.0	1
288.462890625	0.2	COHERENT	1	0.829457060149707	0	0	0	RIGHT	424.0	1
290.0927734375	0.2	COHERENT	1	0.819304896932863	0	0	0	RIGHT	427.0	1
291.61279296875	0.2	RANDOM	0	0.828192605248205	0	0	0	NONE	430.0	1
293.1923828125	0.2	COHERENT	1	0.789894321876091	0	0	0	RIGHT	433.0	1
294.8623046875	0.2	RANDOM	0	0.784532839907115	0	0	0	NONE	436.0	1
296.51220703125	0.2	RANDOM	0	0.804473133729061	0	0	0	NONE	439.0	1
298.01220703125	0.2	RANDOM	0	0.978232298687999	0	0	0	NONE	443.0	1
299.7021484375	0.2	COHERENT	1	0.788065405129601	0	0	0	RIGHT	446.0	1
301.28173828125	0.2	RANDOM	0	0.789846025675615	0	0	0	NONE	449.0	1
302.95166015625	0.2	COHERENT	1	0.694318857553299	0	0	0	RIGHT	452.0	1
304.5517578125	0.2	RANDOM	0	0.749166437763051	0	0	0	NONE	455.0	1
305.92138671875	0.2	RANDOM	0	0.75326195557318	0	0	0	NONE	459.0	1
307.3515625	0.2	RANDOM	0	0.743049120254454	0	0	0	NONE	463.0	1
308.8212890625	0.2	COHERENT	1	0.814784372556915	0	0	180	LEFT	467.0	1
310.34130859375	0.2	RANDOM	0	0.788604511468748	0	0	0	NONE	470.0	1
312.03125	0.2	COHERENT	1	0.779494036928554	0	0	180	LEFT	473.0	1
313.4111328125	0.2	COHERENT	1	0.718175671392601	0	0	180	LEFT	477.0	1
314.7607421875	0.2	RANDOM	0	0.813978731560383	0	0	0	NONE	481.0	1
316.20068359375	0.2	RANDOM	0	0.85295376544309	0	0	0	NONE	485.0	1
317.78076171875	0.2	COHERENT	1	n/a	0	1	180	LEFT	488.0	0
319.8505859375	0.2	COHERENT	1	0.804087971529498	0	0	0	RIGHT	489.0	1
321.2705078125	0.2	RANDOM	0	0.823000159981348	0	0	0	NONE	493.0	1
397.00439453125	0.2	RANDOM	0	0.53923764447336	0	0	0	NONE	495.0	1
398.314453125	0.2	RANDOM	0	0.550419120465904	0	0	0	NONE	499.0	1
399.5244140625	0.2	COHERENT	1	0.653181059437429	0	0	180	LEFT	503.0	1
400.96435546875	0.2	RANDOM	0	0.544006894283029	0	0	0	NONE	507.0	1
402.18408203125	0.2	COHERENT	1	0.562788984843792	0	0	0	RIGHT	511.0	1
403.4140625	0.2	RANDOM	0	0.563704801547829	0	0	0	NONE	515.0	1
404.8642578125	0.2	COHERENT	1	0.664552701719458	0	0	0	RIGHT	519.0	1
406.25390625	0.2	COHERENT	1	0.604444156008867	0	0	0	RIGHT	523.0	1
407.73388671875	0.2	COHERENT	1	0.614189121884465	0	0	180	LEFT	527.0	1
409.11376953125	0.2	COHERENT	1	0.614734567100186	0	0	180	LEFT	531.0	1
410.6337890625	0.2	COHERENT	1	0.569950103987594	0	0	180	LEFT	534.0	1
412.00341796875	0.2	COHERENT	1	0.629466719390166	0	0	0	RIGHT	538.0	1
413.50341796875	0.2	RANDOM	0	0.544494987760118	0	0	0	NONE	542.0	1
414.72314453125	0.2	RANDOM	0	0.71332703470398	0	0	0	NONE	546.0	1
416.123046875	0.2	COHERENT	1	0.643210912526683	0	0	180	LEFT	550.0	1
417.64306640625	0.2	COHERENT	1	0.623925937776221	0	0	180	LEFT	553.0	1
419.0927734375	0.2	RANDOM	0	0.694540114522624	0	0	0	NONE	557.0	1
420.52294921875	0.2	COHERENT	1	0.749483079728179	0	0	0	RIGHT	561.0	1
421.962890625	0.2	COHERENT	1	0.773370682395125	0	0	180	LEFT	565.0	1
423.5625	0.2	RANDOM	0	0.633910271696095	0	0	0	NONE	568.0	1
424.79248046875	0.2	COHERENT	1	0.688002318217514	0	0	0	RIGHT	572.0	1
426.38232421875	0.2	COHERENT	1	0.630103021832838	0	0	180	LEFT	575.0	1
n/a	0.2	RANDOM	0	0.77268638560281	1	0	0	NONE	n/a	1
429.162109375	0.2	RANDOM	0	0.678481024121083	0	0	0	NONE	578.0	1
430.72216796875	0.2	RANDOM	0	0.674210130731808	0	0	0	NONE	581.0	1
432.27197265625	0.2	COHERENT	1	0.583743800729735	0	0	0	RIGHT	584.0	1
433.60205078125	0.2	COHERENT	1	0.639908659810771	0	0	180	LEFT	588.0	1
435.02197265625	0.2	RANDOM	0	0.734723760825091	0	0	0	NONE	592.0	1
436.5517578125	0.2	COHERENT	1	0.679493735076903	0	0	180	LEFT	595.0	1
438.021484375	0.2	RANDOM	0	0.719227623012102	0	0	0	NONE	599.0	1
439.51123046875	0.2	COHERENT	1	0.719183854580024	0	0	180	LEFT	603.0	1
441.12109375	0.2	RANDOM	0	0.739932506059631	0	0	0	NONE	606.0	1
442.611328125	0.2	COHERENT	1	0.739682875072958	0	0	180	LEFT	610.0	1
444.03125	0.2	COHERENT	1	0.743486804572512	0	0	0	RIGHT	614.0	1
445.56103515625	0.2	RANDOM	0	0.739368647917672	0	0	0	NONE	617.0	1
447.130859375	0.2	RANDOM	0	0.624171946548358	0	0	0	NONE	620.0	1
448.61083984375	0.2	RANDOM	0	0.709936339570959	0	0	0	NONE	624.0	1
449.95068359375	0.2	COHERENT	1	0.683097235344121	0	0	180	LEFT	628.0	1
451.50048828125	0.2	RANDOM	0	0.66354602778847	0	0	0	NONE	631.0	1
453.0703125	0.2	COHERENT	1	0.609467866424893	0	0	0	RIGHT	634.0	1
454.59033203125	0.2	RANDOM	0	0.589196139926116	0	0	0	NONE	637.0	1
455.89013671875	0.2	RANDOM	0	0.795018850610631	0	0	0	NONE	641.0	1
457.33984375	0.2	COHERENT	1	0.817907325627857	0	0	180	LEFT	645.0	1
458.91015625	0.2	RANDOM	0	0.669519060397306	0	0	0	NONE	648.0	1
460.31982421875	0.2	RANDOM	0	0.7592183863635	0	0	0	NONE	652.0	1
461.78955078125	0.2	COHERENT	1	0.778192152471092	0	0	180	LEFT	656.0	1
463.3896484375	0.2	COHERENT	1	0.804983564199119	0	0	0	RIGHT	659.0	1
464.8896484375	0.2	COHERENT	1	0.747742907250085	0	0	0	RIGHT	663.0	1
466.3994140625	0.2	COHERENT	1	0.739694043569216	0	0	0	RIGHT	666.0	1
467.80908203125	0.2	RANDOM	0	0.793420850073289	0	0	0	NONE	670.0	1
469.46923828125	0.2	COHERENT	1	0.959293245474328	0	0	0	RIGHT	673.0	1
471.298828125	0.2	RANDOM	0	0.653740087959704	0	0	0	NONE	676.0	1
472.64892578125	0.2	RANDOM	0	0.848664760978863	0	0	0	NONE	680.0	1
474.11865234375	0.2	RANDOM	0	0.793671688465565	0	0	0	NONE	684.0	1
475.53857421875	0.2	RANDOM	0	0.873193797560361	0	0	0	NONE	688.0	1
477.318359375	0.2	RANDOM	0	0.639249718523843	0	0	0	NONE	691.0	1
478.63818359375	0.2	RANDOM	0	0.812990772407375	0	0	0	NONE	695.0	1
480.2880859375	0.2	RANDOM	0	0.87989187688072	0	0	0	NONE	698.0	1
481.8583984375	0.2	RANDOM	0	1.14229690692991	0	0	0	NONE	701.0	1
483.73828125	0.2	COHERENT	1	0.64919481178049	0	0	0	RIGHT	703.0	1
485.2978515625	0.2	COHERENT	1	0.710446770040562	0	0	0	RIGHT	706.0	1
486.60791015625	0.2	COHERENT	1	0.747891116215669	0	0	0	RIGHT	710.0	1
488.2578125	0.2	COHERENT	1	0.649943704741418	0	0	180	LEFT	713.0	1
489.66748046875	0.2	COHERENT	1	0.699703582069105	0	0	180	LEFT	717.0	1
491.12744140625	0.2	RANDOM	0	0.704503318854222	0	0	0	NONE	721.0	1
492.62744140625	0.2	RANDOM	0	0.750302304030356	0	0	0	NONE	725.0	1
494.26708984375	0.2	COHERENT	1	0.725233859258879	0	0	180	LEFT	728.0	1
495.6171875	0.2	RANDOM	0	0.762910329047827	0	0	0	NONE	732.0	1
497.1572265625	0.2	COHERENT	1	0.67471180751545	0	0	0	RIGHT	735.0	1
498.45703125	0.2	COHERENT	1	1.05346419591342	0	0	0	RIGHT	739.0	1
500.2568359375	0.2	RANDOM	0	0.849385279921535	0	0	0	NONE	741.0	1
501.95654296875	0.2	RANDOM	0	0.779038543386378	0	0	0	NONE	744.0	1
503.50634765625	0.2	COHERENT	1	0.834892193824999	0	0	180	LEFT	747.0	1
504.99658203125	0.2	COHERENT	1	0.747681933296917	0	0	180	LEFT	751.0	1
506.396484375	0.2	RANDOM	0	0.818448846777301	0	0	0	NONE	755.0	1
507.84619140625	0.2	COHERENT	1	0.823381398114634	0	0	0	RIGHT	759.0	1
509.3662109375	0.2	COHERENT	1	0.758656641180551	0	0	180	LEFT	762.0	1
510.89599609375	0.2	RANDOM	0	0.793987123025545	0	0	0	NONE	765.0	1
512.595703125	0.2	RANDOM	0	0.699515830589007	0	0	0	NONE	768.0	1
514.1455078125	0.2	RANDOM	0	0.829337828904499	0	0	0	NONE	771.0	1
515.765625	0.2	COHERENT	1	0.829074312759985	0	0	0	RIGHT	774.0	1
517.3056640625	0.2	RANDOM	0	0.848189345254013	0	0	0	NONE	777.0	1
518.75537109375	0.2	COHERENT	1	1.02786962440632	0	0	0	RIGHT	781.0	1
n/a	0.2	RANDOM	0	1.11843103755336	1	0	0	NONE	n/a	1
522.455078125	0.2	RANDOM	0	0.819536114993298	0	0	0	NONE	783.0	1
523.9248046875	0.2	RANDOM	0	0.988202143747458	0	0	0	NONE	787.0	1
525.8046875	0.2	COHERENT	1	0.829003679566995	0	0	180	LEFT	790.0	1
527.32470703125	0.2	RANDOM	0	0.723867378632804	0	0	0	NONE	793.0	1
n/a	0.2	COHERENT	1	0.772642617171186	1	0	180	LEFT	n/a	1
530.36474609375	0.2	COHERENT	1	0.594427825856201	0	0	180	LEFT	796.0	1
531.8642578125	0.2	COHERENT	1	0.649211715450747	0	0	0	RIGHT	800.0	1
533.1640625	0.2	COHERENT	1	0.668162239011963	0	0	180	LEFT	804.0	1
534.583984375	0.2	COHERENT	1	0.669936218830117	0	0	180	LEFT	808.0	1
535.88427734375	0.2	RANDOM	0	0.673688229914205	0	0	0	NONE	812.0	1
537.333984375	0.2	RANDOM	0	0.604521731781006	0	0	0	NONE	816.0	1
538.8037109375	0.2	COHERENT	1	0.704405820899865	0	0	0	RIGHT	820.0	1
540.423828125	0.2	RANDOM	0	0.599159344258169	0	0	0	NONE	823.0	1
541.673828125	0.2	COHERENT	1	0.718102623389314	0	0	180	LEFT	827.0	1
543.28369140625	0.2	COHERENT	1	0.60987868598113	0	0	180	LEFT	830.0	1
544.5234375	0.2	COHERENT	1	0.593668368101589	0	0	0	RIGHT	834.0	1
545.9033203125	0.2	RANDOM	0	0.709398440636505	0	0	0	NONE	838.0	1
547.29345703125	0.2	COHERENT	1	0.513275719990816	0	0	180	LEFT	842.0	1
548.64306640625	0.2	RANDOM	0	0.664991895293952	0	0	0	NONE	846.0	1
549.9228515625	0.2	RANDOM	0	0.682979513355349	0	0	0	NONE	850.0	1
551.212890625	0.2	COHERENT	1	0.837756460371565	0	0	180	LEFT	854.0	1
552.73291015625	0.2	COHERENT	1	0.67345338963878	0	0	0	RIGHT	857.0	1
554.29248046875	0.2	COHERENT	1	0.589391437687482	0	0	180	LEFT	860.0	1
555.50244140625	0.2	COHERENT	1	0.678191548768609	0	0	0	RIGHT	864.0	1
556.91259765625	0.2	RANDOM	0	0.570060581546841	0	0	0	NONE	868.0	1
558.2021484375	0.2	RANDOM	0	0.607875601061096	0	0	0	NONE	872.0	1
559.4521484375	0.2	RANDOM	0	0.648664459127758	0	0	0	NONE	876.0	1
560.92236328125	0.2	COHERENT	1	0.705216291516081	0	0	0	RIGHT	880.0	1
562.23193359375	0.2	RANDOM	0	0.917157527113886	0	0	0	NONE	884.0	1
563.97216796875	0.2	RANDOM	0	0.624037924591448	0	0	0	NONE	887.0	1
565.2216796875	0.2	COHERENT	1	0.642983014829952	0	0	180	LEFT	891.0	1
566.501953125	0.2	COHERENT	1	0.652919354400638	0	0	180	LEFT	895.0	1
567.8515625	0.2	RANDOM	0	0.607641062636958	0	0	0	NONE	899.0	1
569.34130859375	0.2	RANDOM	0	0.604450193034154	0	0	0	NONE	903.0	1
570.71142578125	0.2	RANDOM	0	0.66432027625433	0	0	0	NONE	907.0	1
572.1611328125	0.2	COHERENT	1	0.684369538379087	0	0	0	RIGHT	911.0	1
573.611328125	0.2	COHERENT	1	0.634889175311855	0	0	180	LEFT	915.0	1
575.09130859375	0.2	RANDOM	0	0.839426905210075	0	0	0	NONE	919.0	1
576.7607421875	0.2	RANDOM	0	0.814457467648936	0	0	0	NONE	922.0	1
578.45068359375	0.2	RANDOM	0	0.704331565490975	0	0	0	NONE	925.0	1
579.77099609375	0.2	RANDOM	0	0.818124356679618	0	0	0	NONE	929.0	1
581.48046875	0.2	COHERENT	1	0.689886473743627	0	0	180	LEFT	932.0	1
583.05029296875	0.2	RANDOM	0	0.674703657531609	0	0	0	NONE	935.0	1
584.5703125	0.2	RANDOM	0	0.730039029367163	0	0	0	NONE	938.0	1
585.97021484375	0.2	RANDOM	0	0.772350727008416	0	0	0	NONE	942.0	1
587.42041015625	0.2	COHERENT	1	0.70301851253771	0	0	0	RIGHT	946.0	1
588.8701171875	0.2	COHERENT	1	0.649915330723161	0	0	0	RIGHT	950.0	1
590.2197265625	0.2	COHERENT	1	0.727821328206119	0	0	0	RIGHT	954.0	1
591.68994140625	0.2	RANDOM	0	0.694481253528011	0	0	0	NONE	958.0	1
n/a	0.2	RANDOM	0	0.554470869844863	1	0	0	NONE	n/a	1
594.40966796875	0.2	RANDOM	0	0.569055718722666	0	0	0	NONE	962.0	1
595.849609375	0.2	RANDOM	0	0.684996785284056	0	0	0	NONE	966.0	1
597.44921875	0.2	RANDOM	0	0.73986972099874	0	0	0	NONE	969.0	1
598.779296875	0.2	COHERENT	1	0.748422978124836	0	0	0	RIGHT	973.0	1
600.37939453125	0.2	COHERENT	1	0.619507137273104	0	0	0	RIGHT	976.0	1
601.69921875	0.2	RANDOM	0	0.728387903009207	0	0	0	NONE	980.0	1
603.2490234375	0.2	RANDOM	0	0.654152114920635	0	0	0	NONE	983.0	1
604.5986328125	0.2	COHERENT	1	0.708895556447715	0	0	0	RIGHT	987.0	1
605.94873046875	0.2	RANDOM	0	0.72284108437043	0	0	0	NONE	991.0	1
607.3388671875	0.2	COHERENT	1	0.653543582793191	0	0	0	RIGHT	995.0	1
608.6083984375	0.2	COHERENT	1	0.708396898176488	0	0	0	RIGHT	999.0	1
610.20849609375	0.2	COHERENT	1	0.679171659789517	0	0	0	RIGHT	1002.0	1
611.48828125	0.2	RANDOM	0	0.708977056286585	0	0	0	NONE	1006.0	1
612.828125	0.2	COHERENT	1	0.742875857634772	0	0	180	LEFT	1010.0	1
614.23828125	0.2	COHERENT	1	0.663447624279797	0	0	180	LEFT	1014.0	1
615.6279296875	0.2	COHERENT	1	0.654450947662099	0	0	0	RIGHT	1018.0	1
n/a	0.2	COHERENT	1	0.589450902384215	1	0	0	RIGHT	n/a	1
n/a	0.2	COHERENT	1	0.668323729432359	1	0	0	RIGHT	n/a	1
686.8828125	0.2	COHERENT	1	0.554380616320032	0	0	180	LEFT	1022.0	1
688.3125	0.2	RANDOM	0	0.554173546359834	0	0	0	NONE	1026.0	1
689.71240234375	0.2	COHERENT	1	0.600080292433631	0	0	0	RIGHT	1030.0	1
691.05224609375	0.2	COHERENT	1	0.604852560755262	0	0	180	LEFT	1034.0	1
692.4521484375	0.2	RANDOM	0	0.529622172785821	0	0	0	NONE	1038.0	1
693.88232421875	0.2	RANDOM	0	0.529420837999623	0	0	0	NONE	1042.0	1
695.3017578125	0.2	RANDOM	0	0.459364180519515	0	0	0	NONE	1046.0	1
696.52197265625	0.2	RANDOM	0	0.469073527946875	0	0	0	NONE	1050.0	1
697.82177734375	0.2	COHERENT	1	0.454917005997686	0	0	180	LEFT	1054.0	1
699.021484375	0.2	RANDOM	0	0.500331130825089	0	0	0	NONE	1058.0	1
700.1416015625	0.2	COHERENT	1	0.592388216934523	0	0	0	RIGHT	1062.0	1
701.44140625	0.2	RANDOM	0	0.508433422178314	0	0	0	NONE	1066.0	1
702.58154296875	0.2	COHERENT	1	0.663728345945401	0	0	180	LEFT	1070.0	1
703.96142578125	0.2	COHERENT	1	n/a	0	1	0	RIGHT	1074.0	0
n/a	0.2	COHERENT	1	0.749751425492377	1	0	0	RIGHT	n/a	1
706.93115234375	0.2	RANDOM	0	0.454840637630241	0	0	0	NONE	1077.0	1
708.1611328125	0.2	COHERENT	1	0.60462828527352	0	0	180	LEFT	1081.0	1
709.4111328125	0.2	RANDOM	0	0.678547129545223	0	0	0	NONE	1085.0	1
710.78076171875	0.2	RANDOM	0	0.833276685914825	0	0	0	NONE	1089.0	1
712.23046875	0.2	RANDOM	0	0.603168532610653	0	0	0	NONE	1093.0	1
713.6806640625	0.2	RANDOM	0	0.609635393870576	0	0	0	NONE	1097.0	1
714.92041015625	0.2	RANDOM	0	0.713845917009166	0	0	0	NONE	1101.0	1
716.4404296875	0.2	RANDOM	0	0.55959479487683	0	0	0	NONE	1104.0	1
717.85009765625	0.2	RANDOM	0	0.649379242896885	0	0	0	NONE	1108.0	1
719.3701171875	0.2	RANDOM	0	0.564303976286737	0	0	0	NONE	1111.0	1
720.740234375	0.2	COHERENT	1	0.650043919357358	0	0	0	RIGHT	1115.0	1
722.16015625	0.2	COHERENT	1	0.484846463359645	0	0	0	RIGHT	1119.0	1
n/a	0.2	COHERENT	1	0.468655463960658	1	0	0	RIGHT	n/a	1
n/a	0.2	COHERENT	1	0.613317375463794	1	0	0	RIGHT	n/a	1
725.90966796875	0.2	COHERENT	1	0.419342326488277	0	0	0	RIGHT	1123.0	1
726.9296875	0.2	RANDOM	0	0.579799510397152	0	0	0	NONE	1127.0	1
728.37939453125	0.2	RANDOM	0	0.441717654374315	0	0	0	NONE	1131.0	1
729.54931640625	0.2	RANDOM	0	0.534917247478916	0	0	0	NONE	1135.0	1
730.8193359375	0.2	COHERENT	1	0.634814919903874	0	0	0	RIGHT	1139.0	1
732.19921875	0.2	COHERENT	1	0.439617675201589	0	0	0	RIGHT	1143.0	1
733.279296875	0.2	COHERENT	1	0.558195412464556	0	0	180	LEFT	1147.0	1
734.7490234375	0.2	COHERENT	1	0.469056624276618	0	0	180	LEFT	1151.0	1
735.81884765625	0.2	COHERENT	1	0.628109294302249	0	0	180	LEFT	1155.0	1
737.0986328125	0.2	COHERENT	1	0.5278484948185	0	0	0	RIGHT	1159.0	1
738.30859375	0.2	RANDOM	0	0.614213873687277	0	0	0	NONE	1163.0	1
739.61865234375	0.2	RANDOM	0	0.537604327339523	0	0	0	NONE	1167.0	1
740.888671875	0.2	COHERENT	1	0.554528221583041	0	0	0	RIGHT	1171.0	1
742.23828125	0.2	COHERENT	1	0.499708713540258	0	0	180	LEFT	1175.0	1
743.48828125	0.2	COHERENT	1	0.738086383792051	0	0	0	RIGHT	1179.0	1
745.078125	0.2	COHERENT	1	0.459890609105514	0	0	180	LEFT	1182.0	1
746.29833984375	0.2	COHERENT	1	0.890710829517047	0	0	180	LEFT	1186.0	1
747.998046875	0.2	COHERENT	1	0.554584365916071	0	0	180	LEFT	1189.0	1
749.22802734375	0.2	RANDOM	0	0.543137864523487	0	0	0	NONE	1193.0	1
750.677734375	0.2	COHERENT	1	0.609197407701686	0	0	0	RIGHT	1197.0	1
752.12744140625	0.2	RANDOM	0	0.510086359643992	0	0	0	NONE	1201.0	1
753.267578125	0.2	RANDOM	0	0.532879147813674	0	0	0	NONE	1205.0	1
754.6474609375	0.2	COHERENT	1	0.539772826746685	0	0	0	RIGHT	1209.0	1
756.0673828125	0.2	COHERENT	1	0.42448375889353	0	0	180	LEFT	1213.0	1
757.1171875	0.2	COHERENT	1	0.533269139633376	0	0	180	LEFT	1217.0	1
758.25732421875	0.2	RANDOM	0	0.588291491718792	0	0	0	NONE	1221.0	1
759.6171875	0.2	RANDOM	0	0.675048371663252	0	0	0	NONE	1225.0	1
761.0869140625	0.2	RANDOM	0	0.519864529157076	0	0	0	NONE	1229.0	1
762.52685546875	0.2	COHERENT	1	0.509655919755915	0	0	0	RIGHT	1233.0	1
763.90673828125	0.2	RANDOM	0	0.554438571760784	0	0	0	NONE	1237.0	1
765.306640625	0.2	RANDOM	0	0.509315733392668	0	0	0	NONE	1241.0	1
766.40673828125	0.2	COHERENT	1	0.668086474347547	0	0	0	RIGHT	1245.0	1
767.8564453125	0.2	COHERENT	1	0.684978674209106	0	0	180	LEFT	1249.0	1
769.4462890625	0.2	COHERENT	1	0.539821424798447	0	0	180	LEFT	1252.0	1
770.6162109375	0.2	RANDOM	0	0.62366211978042	0	0	0	NONE	1256.0	1
772.01611328125	0.2	RANDOM	0	0.744401715722688	0	0	0	NONE	1260.0	1
773.63623046875	0.2	COHERENT	1	0.594474612800241	0	0	180	LEFT	1263.0	1
774.98583984375	0.2	RANDOM	0	0.780044009912672	0	0	0	NONE	1267.0	1
776.5859375	0.2	RANDOM	0	0.594851021313843	0	0	0	NONE	1270.0	1
777.91552734375	0.2	RANDOM	0	0.690439767091448	0	0	0	NONE	1274.0	1
779.435546875	0.2	RANDOM	0	0.66355538517746	0	0	0	NONE	1277.0	1
780.95556640625	0.2	COHERENT	1	0.509325996335519	0	0	180	LEFT	1280.0	1
782.28515625	0.2	RANDOM	0	0.583968679914051	0	0	0	NONE	1284.0	1
783.72509765625	0.2	COHERENT	1	0.658940683210403	0	0	180	LEFT	1288.0	1
784.9951171875	0.2	COHERENT	1	0.757873035325701	0	0	180	LEFT	1292.0	1
786.44482421875	0.2	RANDOM	0	0.608600345921786	0	0	0	NONE	1296.0	1
787.7548828125	0.2	RANDOM	0	0.628413258514684	0	0	0	NONE	1300.0	1
789.11474609375	0.2	RANDOM	0	0.584185710965357	0	0	0	NONE	1304.0	1
790.5146484375	0.2	RANDOM	0	0.47409995502403	0	0	0	NONE	1308.0	1
791.8447265625	0.2	RANDOM	0	0.639910772769326	0	0	0	NONE	1312.0	1
793.234375	0.2	RANDOM	0	0.539802106318348	0	0	0	NONE	1316.0	1
794.39453125	0.2	COHERENT	1	0.683597101020496	0	0	0	RIGHT	1320.0	1
795.984375	0.2	COHERENT	1	0.619344137595817	0	0	180	LEFT	1323.0	1
797.2041015625	0.2	RANDOM	0	0.748281711737945	0	0	0	NONE	1327.0	1
798.7841796875	0.2	RANDOM	0	0.614048459200148	0	0	0	NONE	1330.0	1
800.1142578125	0.2	COHERENT	1	n/a	0	1	0	RIGHT	1334.0	0
801.18408203125	0.2	RANDOM	0	0.632671172299979	0	0	0	NONE	1338.0	1
802.50390625	0.2	RANDOM	0	0.783443760583395	0	0	0	NONE	1342.0	1
803.95361328125	0.2	RANDOM	0	0.643117942340268	0	0	0	NONE	1346.0	1
805.45361328125	0.2	COHERENT	1	0.609227894678043	0	0	0	RIGHT	1350.0	1
806.70361328125	0.2	RANDOM	0	0.648096073216948	0	0	0	NONE	1354.0	1
808.04345703125	0.2	COHERENT	1	0.642852916939319	0	0	0	RIGHT	1358.0	1
809.2734375	0.2	COHERENT	1	0.589028008777859	0	0	180	LEFT	1362.0	1
810.54345703125	0.2	RANDOM	0	0.633452363344531	0	0	0	NONE	1366.0	1
n/a	0.2	COHERENT	1	0.609332335212002	1	0	180	LEFT	n/a	1
813.44287109375	0.2	COHERENT	1	0.589172293677166	0	0	0	RIGHT	1370.0	1
814.6328125	0.2	COHERENT	1	0.55791287969123	0	0	180	LEFT	1374.0	1
816.06298828125	0.2	COHERENT	1	0.634839973557973	0	0	0	RIGHT	1378.0	1
817.58251953125	0.2	COHERENT	1	0.553581917902648	0	0	0	RIGHT	1381.0	1
819.03271484375	0.2	RANDOM	0	0.57938084270836	0	0	0	NONE	1385.0	1
820.232421875	0.2	COHERENT	1	0.583335999686369	0	0	0	RIGHT	1389.0	1
821.42236328125	0.2	RANDOM	0	0.678132687773996	0	0	0	NONE	1393.0	1
822.8720703125	0.2	RANDOM	0	0.725002641198444	0	0	0	NONE	1397.0	1
824.251953125	0.2	RANDOM	0	0.717692709386483	0	0	0	NONE	1401.0	1
825.7919921875	0.2	RANDOM	0	0.524599367923656	0	0	0	NONE	1404.0	1
827.02197265625	0.2	COHERENT	1	0.668230759246399	0	0	180	LEFT	1408.0	1
828.52197265625	0.2	RANDOM	0	0.714242549556275	0	0	0	NONE	1412.0	1
830.02197265625	0.2	COHERENT	1	0.660097980916817	0	0	0	RIGHT	1416.0	1
831.5615234375	0.2	RANDOM	0	0.774462478379974	0	0	0	NONE	1419.0	1
833.0615234375	0.2	RANDOM	0	0.664595866448963	0	0	0	NONE	1423.0	1
834.5615234375	0.2	RANDOM	0	0.664376118736072	0	0	0	NONE	1427.0	1
835.88134765625	0.2	COHERENT	1	0.588064801427208	0	0	180	LEFT	1431.0	1
837.361328125	0.2	COHERENT	1	0.499824624421763	0	0	180	LEFT	1435.0	1
838.6611328125	0.2	RANDOM	0	0.539027857852034	0	0	0	NONE	1439.0	1
839.85107421875	0.2	COHERENT	1	0.687885199931316	0	0	0	RIGHT	1443.0	1
841.32080078125	0.2	COHERENT	1	0.6045685187255	0	0	180	LEFT	1447.0	1
842.70068359375	0.2	COHERENT	1	0.564354989148342	0	0	0	RIGHT	1451.0	1
843.9306640625	0.2	RANDOM	0	0.943162012623816	0	0	0	NONE	1455.0	1
845.650390625	0.2	COHERENT	1	0.994705830860767	0	0	0	RIGHT	1458.0	1
847.400390625	0.2	COHERENT	1	0.850816658567055	0	0	180	LEFT	1460.0	1
848.96044921875	0.2	RANDOM	0	0.777615918427728	0	0	0	NONE	1463.0	1
850.51025390625	0.2	COHERENT	1	0.764345631759625	0	0	0	RIGHT	1466.0	1
851.990234375	0.2	COHERENT	1	0.774132554959579	0	0	0	RIGHT	1470.0	1
853.3798828125	0.2	COHERENT	1	0.818159371424827	0	0	180	LEFT	1474.0	1
854.98974609375	0.2	RANDOM	0	0.699916689054135	0	0	0	NONE	1477.0	1
856.5498046875	0.2	COHERENT	1	0.649595066543498	0	0	0	RIGHT	1480.0	1
857.849609375	0.2	RANDOM	0	0.818377609881736	0	0	0	NONE	1484.0	1
859.279296875	0.2	RANDOM	0	0.77313795507871	0	0	0	NONE	1488.0	1
860.779296875	0.2	RANDOM	0	0.714069588788334	0	0	0	NONE	1492.0	1
862.3193359375	0.2	COHERENT	1	0.633870427330748	0	0	180	LEFT	1495.0	1
863.79931640625	0.2	RANDOM	0	0.769677834156937	0	0	0	NONE	1499.0	1
865.3388671875	0.2	RANDOM	0	0.839413623754353	0	0	0	NONE	1502.0	1
867.01904296875	0.2	COHERENT	1	0.709219140991536	0	0	0	RIGHT	1505.0	1
868.61865234375	0.2	COHERENT	1	0.780143620826493	0	0	180	LEFT	1508.0	1
870.20849609375	0.2	RANDOM	0	0.66985894490881	0	0	0	NONE	1511.0	1
871.65869140625	0.2	RANDOM	0	0.724738219500068	0	0	0	NONE	1515.0	1
873.17822265625	0.2	COHERENT	1	0.669419449483939	0	0	180	LEFT	1518.0	1
874.5283203125	0.2	COHERENT	1	0.663324167117025	0	0	180	LEFT	1522.0	1
876.05810546875	0.2	COHERENT	1	0.674101464280739	0	0	180	LEFT	1525.0	1
877.4482421875	0.2	RANDOM	0	0.687888520295019	0	0	0	NONE	1529.0	1
878.998046875	0.2	COHERENT	1	0.574405126641523	0	0	180	LEFT	1532.0	1
880.248046875	0.2	RANDOM	0	1.07431909903471	0	0	0	NONE	1536.0	1
882.2275390625	0.2	RANDOM	0	0.748331215344024	0	0	0	NONE	1538.0	1
883.8876953125	0.2	RANDOM	0	0.599085994403595	0	0	0	NONE	1541.0	1
885.19775390625	0.2	COHERENT	1	0.704908403236914	0	0	180	LEFT	1545.0	1
886.78759765625	0.2	COHERENT	1	0.704645490794974	0	0	0	RIGHT	1548.0	1
888.357421875	0.2	COHERENT	1	0.69453015343106	0	0	180	LEFT	1551.0	1
889.95703125	0.2	RANDOM	0	0.719377039382834	0	0	0	NONE	1554.0	1
891.45703125	0.2	RANDOM	0	0.874102369833963	0	0	0	NONE	1558.0	1
942.6630859375	0.2	RANDOM	0	0.529643302373188	0	0	0	NONE	1560.0	1
943.9228515625	0.2	RANDOM	0	0.474115651289139	0	0	0	NONE	1564.0	1
945.283203125	0.2	RANDOM	0	0.524184624301142	0	0	0	NONE	1568.0	1
946.712890625	0.2	COHERENT	1	0.613088572213201	0	0	0	RIGHT	1572.0	1
947.98291015625	0.2	RANDOM	0	0.578946478754006	0	0	0	NONE	1576.0	1
949.40283203125	0.2	COHERENT	1	0.88374349887863	0	0	0	RIGHT	1580.0	1
951.17236328125	0.2	RANDOM	0	0.58454340470098	0	0	0	NONE	1583.0	1
952.6025390625	0.2	COHERENT	1	0.624334342522616	0	0	0	RIGHT	1587.0	1
953.83251953125	0.2	COHERENT	1	0.588108268007545	0	0	180	LEFT	1591.0	1
955.10205078125	0.2	RANDOM	0	0.493058628569088	0	0	0	NONE	1595.0	1
956.27197265625	0.2	COHERENT	1	0.572822822369744	0	0	0	RIGHT	1599.0	1
957.52197265625	0.2	RANDOM	0	0.493794541925581	0	0	0	NONE	1603.0	1
958.64208984375	0.2	RANDOM	0	0.663548744450054	0	0	0	NONE	1607.0	1
960.16162109375	0.2	COHERENT	1	0.469336440388815	0	0	180	LEFT	1610.0	1
961.27197265625	0.2	RANDOM	0	0.588117625396535	0	0	0	NONE	1614.0	1
962.76171875	0.2	COHERENT	1	0.470031603826101	0	0	0	RIGHT	1618.0	1
963.91162109375	0.2	COHERENT	1	0.49299554165691	0	0	180	LEFT	1622.0	1
965.08154296875	0.2	COHERENT	1	0.442732176437858	0	0	0	RIGHT	1626.0	1
966.3115234375	0.2	RANDOM	0	0.629541578501176	0	0	0	NONE	1630.0	1
967.63134765625	0.2	COHERENT	1	0.623330385252757	0	0	180	LEFT	1634.0	1
969.13134765625	0.2	RANDOM	0	0.795242220538512	0	0	0	NONE	1638.0	1
970.51123046875	0.2	RANDOM	0	0.50783786965485	0	0	0	NONE	1642.0	1
971.93115234375	0.2	COHERENT	1	0.568709495334588	0	0	180	LEFT	1646.0	1
973.32080078125	0.2	RANDOM	0	0.504608363090938	0	0	0	NONE	1650.0	1
974.70068359375	0.2	RANDOM	0	0.564254472681114	0	0	0	NONE	1654.0	1
976.0908203125	0.2	COHERENT	1	0.584373462445001	0	0	0	RIGHT	1658.0	1
977.50048828125	0.2	RANDOM	0	0.513844407752913	0	0	0	NONE	1662.0	1
978.740234375	0.2	COHERENT	1	0.525117042823695	0	0	180	LEFT	1666.0	1
980.09033203125	0.2	COHERENT	1	0.59477555850026	0	0	0	RIGHT	1670.0	1
981.59033203125	0.2	RANDOM	0	0.819582901937792	0	0	0	NONE	1674.0	1
983.09033203125	0.2	RANDOM	0	0.673342610228246	0	0	0	NONE	1678.0	1
984.35986328125	0.2	RANDOM	0	0.697957976268754	0	0	0	NONE	1682.0	1
985.7099609375	0.2	COHERENT	1	0.728027492612	0	0	0	RIGHT	1686.0	1
987.19970703125	0.2	RANDOM	0	0.520336020816103	0	0	0	NONE	1690.0	1
988.52978515625	0.2	RANDOM	0	0.64339624919603	0	0	0	NONE	1694.0	1
989.77978515625	0.2	RANDOM	0	0.598201872081063	0	0	0	NONE	1698.0	1
991.1796875	0.2	RANDOM	0	0.789314767469023	0	0	0	NONE	1702.0	1
992.869140625	0.2	RANDOM	0	0.590287030357104	0	0	0	NONE	1705.0	1
994.29931640625	0.2	COHERENT	1	0.590059132660826	0	0	180	LEFT	1709.0	1
995.71923828125	0.2	COHERENT	1	0.484815372680714	0	0	0	RIGHT	1713.0	1
997.0888671875	0.2	COHERENT	1	0.494586599615559	0	0	0	RIGHT	1717.0	1
998.4091796875	0.2	COHERENT	1	0.554482943894982	0	0	180	LEFT	1721.0	1
999.65869140625	0.2	RANDOM	0	0.568278753596132	0	0	0	NONE	1725.0	1
1001.06884765625	0.2	COHERENT	1	0.708922119358249	0	0	0	RIGHT	1729.0	1
1002.6083984375	0.2	COHERENT	1	0.654843052440356	0	0	0	RIGHT	1732.0	1
1004.08837890625	0.2	COHERENT	1	0.544739789126652	0	0	0	RIGHT	1736.0	1
1005.408203125	0.2	RANDOM	0	0.624623516023803	0	0	0	NONE	1740.0	1
1006.6982421875	0.2	COHERENT	1	0.718862382994757	0	0	0	RIGHT	1744.0	1
1008.22802734375	0.2	COHERENT	1	0.62318247813846	0	0	180	LEFT	1747.0	1
1009.75830078125	0.2	RANDOM	0	0.589892208917263	0	0	0	NONE	1750.0	1
1011.02783203125	0.2	RANDOM	0	0.672792033541555	0	0	0	NONE	1754.0	1
1012.36767578125	0.2	COHERENT	1	0.693611016363775	0	0	0	RIGHT	1758.0	1
1013.66796875	0.2	COHERENT	1	0.678328589237481	0	0	0	RIGHT	1762.0	1
1014.99755859375	0.2	RANDOM	0	0.718313617415788	0	0	0	NONE	1766.0	1
1016.58740234375	0.2	COHERENT	1	0.514067173978219	0	0	180	LEFT	1769.0	1
1018.00732421875	0.2	COHERENT	1	0.559850462888789	0	0	180	LEFT	1773.0	1
1019.267578125	0.2	COHERENT	1	0.697817917286557	0	0	180	LEFT	1777.0	1
1020.68701171875	0.2	COHERENT	1	0.624702902903209	0	0	0	RIGHT	1781.0	1
n/a	0.2	COHERENT	1	0.50433065993775	1	0	180	LEFT	n/a	1
n/a	0.2	RANDOM	0	0.654233312908218	1	0	0	NONE	n/a	1
1024.9267578125	0.2	COHERENT	1	0.840096713141975	0	0	0	RIGHT	1785.0	1
1026.44677734375	0.2	RANDOM	0	0.682795082239409	0	0	0	NONE	1788.0	1
1027.8466796875	0.2	COHERENT	1	0.754622399173968	0	0	0	RIGHT	1792.0	1
1029.32666015625	0.2	RANDOM	0	0.604572442791323	0	0	0	NONE	1796.0	1
1030.82666015625	0.2	RANDOM	0	0.579205165278381	0	0	0	NONE	1800.0	1
1032.146484375	0.2	RANDOM	0	0.465068867363698	0	0	0	NONE	1804.0	1
1033.22607421875	0.2	COHERENT	1	0.572862364883804	0	0	0	RIGHT	1808.0	1
1034.5361328125	0.2	COHERENT	1	0.515319554830057	0	0	0	RIGHT	1812.0	1
1035.666015625	0.2	COHERENT	1	0.852649801230655	0	0	180	LEFT	1816.0	1
1037.3662109375	0.2	RANDOM	0	0.489227230605138	0	0	0	NONE	1819.0	1
1038.5859375	0.2	COHERENT	1	1.08426449414264	0	0	180	LEFT	1823.0	1
1040.40576171875	0.2	COHERENT	1	0.625028902257782	0	0	0	RIGHT	1825.0	1
1041.92578125	0.2	COHERENT	1	0.599832774405513	0	0	0	RIGHT	1828.0	1
1043.20556640625	0.2	RANDOM	0	n/a	0	1	0	NONE	1832.0	0
1045.28515625	0.2	COHERENT	1	0.899303931008944	0	0	180	LEFT	1833.0	1
1046.89501953125	0.2	RANDOM	0	0.588288775057208	0	0	0	NONE	1836.0	1
1048.1552734375	0.2	RANDOM	0	0.643088964620347	0	0	0	NONE	1840.0	1
1049.46484375	0.2	COHERENT	1	n/a	0	1	180	LEFT	1844.0	0
1051.27490234375	0.2	RANDOM	0	0.873656535532518	0	0	0	NONE	1845.0	1
1052.77490234375	0.2	COHERENT	1	0.743472919415126	0	0	180	LEFT	1849.0	1
1054.384765625	0.2	RANDOM	0	0.539259075912469	0	0	0	NONE	1852.0	1
1055.78466796875	0.2	COHERENT	1	0.49408613023661	0	0	0	RIGHT	1856.0	1
1057.0146484375	0.2	RANDOM	0	0.634889779014429	0	0	0	NONE	1860.0	1
1058.46435546875	0.2	RANDOM	0	0.574806588809224	0	0	0	NONE	1864.0	1
1059.8544921875	0.2	COHERENT	1	0.579529655376518	0	0	0	RIGHT	1868.0	1
1061.30419921875	0.2	RANDOM	0	0.654322057176614	0	0	0	NONE	1872.0	1
1062.583984375	0.2	RANDOM	0	0.843126696026502	0	0	0	NONE	1876.0	1
1064.15380859375	0.2	COHERENT	1	0.614967898119176	0	0	180	LEFT	1879.0	1
1065.39404296875	0.2	RANDOM	0	0.622559457151056	0	0	0	NONE	1883.0	1
1066.70361328125	0.2	COHERENT	1	0.988648279900644	0	0	180	LEFT	1887.0	1
1068.37353515625	0.2	COHERENT	1	0.603366245181405	0	0	180	LEFT	1889.0	1
1069.66357421875	0.2	RANDOM	0	0.633250123004018	0	0	0	NONE	1893.0	1
1071.09326171875	0.2	COHERENT	1	0.739066192961218	0	0	180	LEFT	1897.0	1
1072.46337890625	0.2	RANDOM	0	0.582610952974392	0	0	0	NONE	1901.0	1
1073.9130859375	0.2	COHERENT	1	0.654728650815287	0	0	0	RIGHT	1905.0	1
1075.3330078125	0.2	RANDOM	0	0.959533519072465	0	0	0	NONE	1909.0	1
1076.962890625	0.2	RANDOM	0	0.563358276308463	0	0	0	NONE	1912.0	1
1078.35302734375	0.2	RANDOM	0	0.974123499421694	0	0	0	NONE	1916.0	1
1080.15283203125	0.2	RANDOM	0	0.894979308096936	0	0	0	NONE	1919.0	1
1081.83251953125	0.2	COHERENT	1	0.669618671311127	0	0	0	RIGHT	1922.0	1
1083.38232421875	0.2	RANDOM	0	0.674243334369748	0	0	0	NONE	1925.0	1
1084.83251953125	0.2	COHERENT	1	0.614077436920979	0	0	180	LEFT	1929.0	1
1086.10205078125	0.2	RANDOM	0	1.1780825804658	0	0	0	NONE	1933.0	1
1088.05224609375	0.2	RANDOM	0	0.774858507224508	0	0	0	NONE	1935.0	1
1089.6220703125	0.2	COHERENT	1	0.569741524771416	0	0	180	LEFT	1938.0	1
1090.82177734375	0.2	RANDOM	0	1.12342818505886	0	0	0	NONE	1942.0	1
1092.841796875	0.2	RANDOM	0	0.699041018566732	0	0	0	NONE	1944.0	1
1094.44140625	0.2	RANDOM	0	0.570117631433732	0	0	0	NONE	1947.0	1
1095.8115234375	0.2	RANDOM	0	0.579871350995745	0	0	0	NONE	1951.0	1
n/a	0.2	COHERENT	1	0.647789996045503	1	0	180	LEFT	n/a	1
n/a	0.2	COHERENT	1	0.609657429012259	1	0	180	LEFT	n/a	1
1099.861328125	0.2	COHERENT	1	0.788334354596827	0	0	0	RIGHT	1955.0	1
1101.451171875	0.2	RANDOM	0	0.689223306538679	0	0	0	NONE	1958.0	1
1102.77099609375	0.2	COHERENT	1	0.692989202780609	0	0	0	RIGHT	1962.0	1
1104.1806640625	0.2	RANDOM	0	n/a	0	1	0	NONE	1966.0	0
1106.15087890625	0.2	COHERENT	1	n/a	0	1	180	LEFT	1967.0	0
n/a	0.2	COHERENT	1	0.758321284437443	1	0	180	LEFT	n/a	1
1109.220703125	0.2	RANDOM	0	0.544486234073702	0	0	0	NONE	1970.0	1
1110.54052734375	0.2	COHERENT	1	0.584024824247081	0	0	0	RIGHT	1974.0	1
1111.7705078125	0.2	COHERENT	1	0.518968030933593	0	0	180	LEFT	1978.0	1
1113.0400390625	0.2	RANDOM	0	0.439861872866459	0	0	0	NONE	1982.0	1
1114.240234375	0.2	RANDOM	0	0.519536114993116	0	0	0	NONE	1986.0	1
1115.47998046875	0.2	RANDOM	0	0.544484121114692	0	0	0	NONE	1990.0	1
1116.8798828125	0.2	COHERENT	1	0.479256178140531	0	0	180	LEFT	1994.0	1
1118.10986328125	0.2	COHERENT	1	0.529033864692337	0	0	180	LEFT	1998.0	1
1119.3095703125	0.2	RANDOM	0	0.572958655433467	0	0	0	NONE	2002.0	1
1120.56982421875	0.2	COHERENT	1	0.55274458252461	0	0	180	LEFT	2006.0	1
1121.74951171875	0.2	RANDOM	0	0.973535795030784	0	0	0	NONE	2010.0	1
1123.3994140625	0.2	COHERENT	1	0.563460603883414	0	0	180	LEFT	2013.0	1
1124.66943359375	0.2	RANDOM	0	0.498262242332203	0	0	0	NONE	2017.0	1
n/a	0.2	COHERENT	1	0.60388844785075	1	0	180	LEFT	n/a	1
n/a	0.2	RANDOM	0	0.619984967807795	1	0	0	NONE	n/a	1
n/a	0.2	RANDOM	0	1.08970143892475	1	0	0	NONE	n/a	1
n/a	0.2	COHERENT	1	1.13410888982116	1	0	180	LEFT	n/a	1
n/a	0.2	COHERENT	1	0.787831772259324	1	0	180	LEFT	n/a	1
n/a	0.2	RANDOM	0	0.514924431538475	1	0	0	NONE	n/a	1
n/a	0.2	COHERENT	1	0.530885722133917	1	0	0	RIGHT	n/a	1
n/a	0.2	RANDOM	0	0.648581450032907	1	0	0	NONE	n/a	1
n/a	0.2	COHERENT	1	0.639457392186159	1	0	180	LEFT	n/a	1
n/a	0.2	COHERENT	1	0.659176127188402	1	0	0	RIGHT	n/a	1
n/a	0.2	RANDOM	0	0.569035494688706	1	0	0	NONE	n/a	1
n/a	0.2	RANDOM	0	0.649834736438606	1	0	0	NONE	n/a	1
n/a	0.2	COHERENT	1	0.779761778990178	1	0	0	RIGHT	n/a	1
n/a	0.2	RANDOM	0	1.1991361017117	1	0	0	NONE	n/a	1
1147.767578125	0.2	COHERENT	1	0.718025651319749	0	0	0	RIGHT	2020.0	1
1149.1376953125	0.2	COHERENT	1	0.628801741078405	0	0	0	RIGHT	2024.0	1
1150.63720703125	0.2	COHERENT	1	0.563944471443392	0	0	0	RIGHT	2028.0	1
1152.107421875	0.2	COHERENT	1	0.629572669180106	0	0	180	LEFT	2032.0	1
1153.5869140625	0.2	RANDOM	0	1.00950257931891	0	0	0	NONE	2036.0	1
n/a	0.2	RANDOM	0	0.843274301289512	1	0	0	NONE	n/a	1
