onset	duration	trial_type	trial_type_id	response_time	bad_epoch	outliers	event_num	response_accuracy
59.95458984375	0.2	FACES	1	0.529564217345069	0	0	1.0	1
n/a	0.2	FACES	1	0.527617880460639	1	0	n/a	1
62.4345703125	0.2	SCRAMBLED	0	0.550418516762875	0	0	9.0	1
63.89453125	0.2	SCRAMBLED	0	0.506046986166439	0	0	17.0	1
n/a	0.2	SCRAMBLED	0	0.583112931609321	1	0	n/a	1
66.4443359375	0.2	SCRAMBLED	0	0.694915919333653	0	0	25.0	1
68.09423828125	0.2	SCRAMBLED	0	0.807665512588756	0	0	31.0	1
69.744140625	0.2	FACES	1	0.725405914473413	0	0	37.0	1
71.423828125	0.2	FACES	1	0.7709546649603	0	0	43.0	1
72.91357421875	0.2	SCRAMBLED	0	0.835025612079335	0	0	51.0	1
74.68359375	0.2	SCRAMBLED	0	0.811887204224149	0	0	56.0	1
76.2333984375	0.2	FACES	1	0.765639064381503	0	0	62.0	1
77.70361328125	0.2	SCRAMBLED	0	0.795443253473422	0	0	70.0	1
79.3134765625	0.2	FACES	1	0.690226358255131	0	0	76.0	1
80.703125	0.2	FACES	1	0.682135235399073	0	0	84.0	1
82.18310546875	0.2	SCRAMBLED	0	0.802893847969244	0	0	92.0	1
83.6728515625	0.2	SCRAMBLED	0	0.782796591494844	0	0	100.0	1
85.1728515625	0.2	SCRAMBLED	0	0.816586424542038	0	0	107.0	1
86.8427734375	0.2	FACES	1	0.669355155166159	0	0	113.0	1
88.16259765625	0.2	FACES	1	0.649793684668111	0	0	121.0	1
89.57275390625	0.2	FACES	1	0.809933622909739	0	0	129.0	1
91.21240234375	0.2	FACES	1	0.836691227296797	0	0	135.0	1
92.76220703125	0.2	SCRAMBLED	0	0.796466529223835	0	0	141.0	1
94.412109375	0.2	FACES	1	0.650205711629496	0	0	147.0	1
95.86181640625	0.2	SCRAMBLED	0	0.871146944208704	0	0	155.0	1
97.4521484375	0.2	SCRAMBLED	0	0.815938651751821	0	0	161.0	1
n/a	0.2	SCRAMBLED	0	0.695683225219909	1	0	n/a	1
n/a	0.2	SCRAMBLED	0	0.76534626866578	1	0	n/a	1
101.9814453125	0.2	SCRAMBLED	0	0.781377588751639	0	0	168.0	1
103.6416015625	0.2	FACES	1	n/a	0	1	174.0	0
105.521484375	0.2	FACES	1	0.954635076926934	0	0	176.0	1
107.4111328125	0.2	FACES	1	0.756690382113447	0	0	181.0	1
109.02099609375	0.2	SCRAMBLED	0	0.938028126499376	0	0	187.0	1
110.77099609375	0.2	SCRAMBLED	0	0.766943665500548	0	0	192.0	1
112.33056640625	0.2	SCRAMBLED	0	0.802000670109919	0	0	198.0	1
113.880859375	0.2	SCRAMBLED	0	0.748942464131687	0	0	204.0	1
115.33056640625	0.2	FACES	1	0.850674486626303	0	0	212.0	1
117.05029296875	0.2	SCRAMBLED	0	0.668432094032141	0	0	217.0	1
118.55029296875	0.2	FACES	1	0.578105219309691	0	0	224.0	1
119.97998046875	0.2	SCRAMBLED	0	0.669105222328653	0	0	232.0	1
121.43017578125	0.2	FACES	1	0.587878559204	0	0	240.0	1
122.75	0.2	FACES	1	0.515667891176236	0	0	248.0	1
123.98974609375	0.2	SCRAMBLED	0	0.706459314978929	0	0	256.0	1
125.349609375	0.2	FACES	1	0.620127441599834	0	0	264.0	1
126.83984375	0.2	SCRAMBLED	0	0.527197099812838	0	0	272.0	1
128.26953125	0.2	SCRAMBLED	0	0.557098485009192	0	0	280.0	1
129.71923828125	0.2	FACES	1	0.460874040490125	0	0	288.0	1
131.01953125	0.2	FACES	1	0.637647190217649	0	0	296.0	1
132.439453125	0.2	SCRAMBLED	0	0.702544002366267	0	0	304.0	1
133.92919921875	0.2	FACES	1	0.59606718001487	0	0	312.0	1
135.37890625	0.2	FACES	1	0.474251786205059	0	0	320.0	1
136.69873046875	0.2	FACES	1	0.526815559828719	0	0	328.0	1
138.02880859375	0.2	SCRAMBLED	0	0.589714418528274	0	0	336.0	1
139.478515625	0.2	SCRAMBLED	0	0.489588546556661	0	0	344.0	1
140.8984375	0.2	FACES	1	0.61637241200242	0	0	352.0	1
142.19873046875	0.2	FACES	1	0.644914862854421	0	0	360.0	1
143.63818359375	0.2	FACES	1	0.586857698263884	0	0	368.0	1
144.9384765625	0.2	FACES	1	0.57990515833626	0	0	376.0	1
146.318359375	0.2	FACES	1	0.673641141118424	0	0	384.0	1
147.93798828125	0.2	FACES	1	0.642429117779102	0	0	390.0	1
149.5078125	0.2	SCRAMBLED	0	0.696341562805173	0	0	396.0	1
151.15771484375	0.2	SCRAMBLED	0	0.604075293776987	0	0	402.0	1
152.677734375	0.2	FACES	1	0.557875751987012	0	0	408.0	1
n/a	0.2	FACES	1	0.548636085110047	1	0	n/a	1
155.40771484375	0.2	SCRAMBLED	0	0.814474069467906	0	0	416.0	1
157.1572265625	0.2	SCRAMBLED	0	0.569421260591298	0	0	421.0	1
158.45703125	0.2	SCRAMBLED	0	0.681118902227354	0	0	429.0	1
159.8271484375	0.2	FACES	1	0.579941078635784	0	0	437.0	1
161.1669921875	0.2	FACES	1	0.538876932225321	0	0	445.0	1
162.51708984375	0.2	SCRAMBLED	0	0.564590734978083	0	0	453.0	1
163.94677734375	0.2	FACES	1	0.481390568355891	0	0	461.0	1
165.11669921875	0.2	SCRAMBLED	0	0.493221326394632	0	0	469.0	1
166.36669921875	0.2	FACES	1	0.691956871492948	0	0	477.0	1
167.88671875	0.2	FACES	1	n/a	0	1	483.0	0
169.28662109375	0.2	SCRAMBLED	0	0.85869407073551	0	0	491.0	1
171.05615234375	0.2	SCRAMBLED	0	0.929158529259439	0	0	496.0	1
172.92626953125	0.2	SCRAMBLED	0	0.662206713775049	0	0	501.0	1
174.5458984375	0.2	FACES	1	0.562950777115475	0	0	507.0	1
176.07568359375	0.2	SCRAMBLED	0	0.626815559828174	0	0	513.0	1
177.6259765625	0.2	SCRAMBLED	0	0.6443715305968	0	0	519.0	1
179.015625	0.2	SCRAMBLED	0	0.663917304830647	0	0	527.0	1
180.515625	0.2	FACES	1	0.625337696090355	0	0	534.0	1
181.79541015625	0.2	FACES	1	0.652135144842759	0	0	542.0	1
183.34521484375	0.2	SCRAMBLED	0	0.569887922630187	0	0	548.0	1
184.8154296875	0.2	SCRAMBLED	0	0.64165094524742	0	0	556.0	1
186.115234375	0.2	SCRAMBLED	0	0.71666369846298	0	0	564.0	1
187.65478515625	0.2	FACES	1	0.721370465062137	0	0	570.0	1
189.11474609375	0.2	FACES	1	0.661896108835208	0	0	578.0	1
n/a	0.2	SCRAMBLED	0	0.550107609972656	1	0	n/a	1
191.7548828125	0.2	FACES	1	0.527866304042618	0	0	586.0	1
193.0244140625	0.2	SCRAMBLED	0	0.570707448783651	0	0	594.0	1
194.45458984375	0.2	FACES	1	0.561587616854013	0	0	602.0	1
195.82421875	0.2	FACES	1	0.720348396716872	0	0	610.0	1
197.47412109375	0.2	SCRAMBLED	0	0.532132065960468	0	0	616.0	1
198.7939453125	0.2	FACES	1	0.506878586370476	0	0	624.0	1
200.09423828125	0.2	SCRAMBLED	0	0.504817244158403	0	0	632.0	1
201.494140625	0.2	FACES	1	0.533605100078603	0	0	640.0	1
202.94384765625	0.2	SCRAMBLED	0	0.726418927280974	0	0	648.0	1
204.6337890625	0.2	FACES	1	0.643137562671654	0	0	654.0	1
206.1337890625	0.2	SCRAMBLED	0	0.629927042552481	0	0	661.0	1
207.603515625	0.2	FACES	1	0.628821663260169	0	0	669.0	1
209.05322265625	0.2	FACES	1	0.766613742080153	0	0	677.0	1
210.783203125	0.2	FACES	1	0.713426645617801	0	0	682.0	1
212.1533203125	0.2	FACES	1	0.620155513765894	0	0	690.0	1
213.533203125	0.2	FACES	1	0.82183924005858	0	0	698.0	1
215.052734375	0.2	FACES	1	0.652875887820301	0	0	704.0	1
216.44287109375	0.2	FACES	1	0.574423237716474	0	0	712.0	1
217.7529296875	0.2	SCRAMBLED	0	0.681428601613334	0	0	720.0	1
219.17236328125	0.2	SCRAMBLED	0	0.48335471446353	0	0	728.0	1
220.49267578125	0.2	SCRAMBLED	0	0.503148006724587	0	0	736.0	1
221.8623046875	0.2	SCRAMBLED	0	0.71913495467652	0	0	744.0	1
223.3623046875	0.2	FACES	1	0.546818940561934	0	0	751.0	1
224.84228515625	0.2	SCRAMBLED	0	0.58160729755582	0	0	759.0	1
226.3818359375	0.2	FACES	1	0.742435154804298	0	0	765.0	1
228.06201171875	0.2	SCRAMBLED	0	0.630205349408243	0	0	771.0	1
229.6318359375	0.2	SCRAMBLED	0	0.594796688087627	0	0	777.0	1
230.931640625	0.2	FACES	1	0.799859035464578	0	0	785.0	1
232.70166015625	0.2	FACES	1	0.763597644352558	0	0	790.0	1
234.42138671875	0.2	FACES	1	0.934120662020177	0	0	795.0	1
236.29150390625	0.2	FACES	1	0.837186867055607	0	0	800.0	1
237.9609375	0.2	FACES	1	0.649030302846768	0	0	806.0	1
239.47119140625	0.2	FACES	1	0.718653803778579	0	0	812.0	1
241.11083984375	0.2	SCRAMBLED	0	0.999523075019169	0	0	818.0	1
242.791015625	0.2	FACES	1	0.697181011141765	0	0	823.0	1
244.29052734375	0.2	FACES	1	0.523123617143938	0	0	830.0	1
245.58056640625	0.2	SCRAMBLED	0	0.975145265915671	0	0	838.0	1
247.3505859375	0.2	SCRAMBLED	0	0.662677299879761	0	0	843.0	1
248.85009765625	0.2	SCRAMBLED	0	0.943445149099716	0	0	850.0	1
250.5	0.2	SCRAMBLED	0	0.607316572539276	0	0	856.0	1
251.9501953125	0.2	SCRAMBLED	0	0.793198385698815	0	0	864.0	1
253.60009765625	0.2	SCRAMBLED	0	0.619922182747359	0	0	870.0	1
255.0498046875	0.2	FACES	1	0.618680668540037	0	0	878.0	1
256.349609375	0.2	SCRAMBLED	0	0.672452149029596	0	0	886.0	1
257.91943359375	0.2	SCRAMBLED	0	0.643231136559734	0	0	892.0	1
259.3896484375	0.2	FACES	1	0.738119587430447	0	0	900.0	1
n/a	0.2	SCRAMBLED	0	0.732906314426145	1	0	n/a	1
262.4892578125	0.2	SCRAMBLED	0	0.904777097942315	0	0	907.0	1
264.33935546875	0.2	FACES	1	0.623457162779232	0	0	912.0	1
n/a	0.2	SCRAMBLED	0	0.543356706682061	1	0	n/a	1
267.15869140625	0.2	FACES	1	1.12287277875203	0	0	920.0	1
269.07861328125	0.2	SCRAMBLED	0	0.569880074496723	0	0	924.0	1
270.46875	0.2	FACES	1	0.563545424085532	0	0	932.0	1
271.818359375	0.2	FACES	1	0.528599198886695	0	0	940.0	1
272.99853515625	0.2	SCRAMBLED	0	0.508395087069403	0	0	948.0	1
274.24853515625	0.2	SCRAMBLED	0	0.512329416310422	0	0	956.0	1
275.568359375	0.2	FACES	1	0.543120357149746	0	0	964.0	1
276.7880859375	0.2	FACES	1	0.676656333292158	0	0	972.0	1
278.26806640625	0.2	SCRAMBLED	0	0.569673004536526	0	0	980.0	1
279.60791015625	0.2	FACES	1	0.61262100462136	0	0	988.0	1
281.05810546875	0.2	SCRAMBLED	0	n/a	0	1	996.0	0
385.06982421875	0.2	SCRAMBLED	0	0.546840975703162	0	0	998.0	1
386.43994140625	0.2	SCRAMBLED	0	0.457009438889145	0	0	1006.0	1
387.76953125	0.2	SCRAMBLED	0	0.433756629407981	0	0	1014.0	1
389.11962890625	0.2	FACES	1	0.462545692733329	0	0	1022.0	1
390.40966796875	0.2	SCRAMBLED	0	0.524107954082865	0	0	1030.0	1
n/a	0.2	FACES	1	0.652326518538757	1	0	n/a	1
n/a	0.2	FACES	1	0.557029361071727	1	0	n/a	1
394.529296875	0.2	SCRAMBLED	0	0.623823610201725	0	0	1038.0	1
395.92919921875	0.2	FACES	1	0.506656423847744	0	0	1046.0	1
397.22900390625	0.2	SCRAMBLED	0	0.543569209964517	0	0	1054.0	1
398.6787109375	0.2	SCRAMBLED	0	n/a	0	1	1062.0	0
400.5986328125	0.2	SCRAMBLED	0	0.685707644986906	0	0	1064.0	1
401.978515625	0.2	FACES	1	0.610590149386553	0	0	1072.0	1
403.32861328125	0.2	FACES	1	0.454760345197428	0	0	1080.0	1
404.54833984375	0.2	FACES	1	0.560586376245737	0	0	1088.0	1
405.9482421875	0.2	SCRAMBLED	0	0.492383387313566	0	0	1096.0	1
407.09814453125	0.2	SCRAMBLED	0	0.475250008301373	0	0	1104.0	1
408.318359375	0.2	SCRAMBLED	0	0.502654479924786	0	0	1112.0	1
409.658203125	0.2	FACES	1	0.506858060484774	0	0	1120.0	1
410.88818359375	0.2	FACES	1	0.574849451686532	0	0	1128.0	1
412.35791015625	0.2	SCRAMBLED	0	0.631415169232241	0	0	1136.0	1
413.95751953125	0.2	SCRAMBLED	0	0.544324743652396	0	0	1142.0	1
415.44775390625	0.2	SCRAMBLED	0	0.567278116690431	0	0	1150.0	1
416.9775390625	0.2	FACES	1	0.56689386004382	0	0	1156.0	1
418.2275390625	0.2	SCRAMBLED	0	0.596550745724016	0	0	1164.0	1
419.71728515625	0.2	FACES	1	0.516975510808152	0	0	1172.0	1
421.0673828125	0.2	SCRAMBLED	0	0.55235187404287	0	0	1180.0	1
422.56689453125	0.2	FACES	1	0.493280489240533	0	0	1187.0	1
423.7470703125	0.2	FACES	1	0.697608432516063	0	0	1195.0	1
425.14697265625	0.2	SCRAMBLED	0	0.597873457917558	0	0	1203.0	1
426.61669921875	0.2	SCRAMBLED	0	0.577746318169375	0	0	1211.0	1
428.056640625	0.2	SCRAMBLED	0	0.478619573846117	0	0	1219.0	1
429.1865234375	0.2	FACES	1	0.562469626217535	0	0	1227.0	1
430.46630859375	0.2	SCRAMBLED	0	0.708289740981854	0	0	1235.0	1
431.95654296875	0.2	SCRAMBLED	0	0.483094216831887	0	0	1243.0	1
433.13623046875	0.2	SCRAMBLED	0	0.581853004476216	0	0	1251.0	1
434.55615234375	0.2	SCRAMBLED	0	0.493785788238711	0	0	1259.0	1
435.80615234375	0.2	FACES	1	0.479556218287144	0	0	1267.0	1
437.0458984375	0.2	SCRAMBLED	0	0.467355088759177	0	0	1275.0	1
438.3759765625	0.2	SCRAMBLED	0	0.459309243590724	0	0	1283.0	1
439.49560546875	0.2	SCRAMBLED	0	0.567061689340335	0	0	1291.0	1
440.8955078125	0.2	SCRAMBLED	0	0.662981264093105	0	0	1299.0	1
442.32568359375	0.2	SCRAMBLED	0	0.416506735810799	0	0	1307.0	1
443.685546875	0.2	FACES	1	0.459582720826802	0	0	1315.0	1
444.96533203125	0.2	SCRAMBLED	0	0.471335903093859	0	0	1323.0	1
446.14501953125	0.2	SCRAMBLED	0	0.457779461436985	0	0	1331.0	1
447.365234375	0.2	FACES	1	0.422079211805794	0	0	1339.0	1
448.48486328125	0.2	SCRAMBLED	0	0.46277932560406	0	0	1347.0	1
449.68505859375	0.2	FACES	1	0.51678655192336	0	0	1355.0	1
451.0546875	0.2	FACES	1	0.413597191575718	0	0	1363.0	1
452.15478515625	0.2	FACES	1	0.397396231084713	0	0	1371.0	1
453.384765625	0.2	SCRAMBLED	0	0.533289967370365	0	0	1379.0	1
454.6845703125	0.2	FACES	1	0.399111651759995	0	0	1387.0	1
455.8046875	0.2	FACES	1	0.410058589328401	0	0	1395.0	1
456.92431640625	0.2	FACES	1	0.382948724527523	0	0	1403.0	1
458.1044921875	0.2	FACES	1	0.353819172987642	0	0	1411.0	1
459.14404296875	0.2	FACES	1	0.387544711717055	0	0	1419.0	1
460.3642578125	0.2	FACES	1	0.36836025343473	0	0	1427.0	1
461.44384765625	0.2	FACES	1	0.602100884726497	0	0	1435.0	1
462.833984375	0.2	FACES	1	0.509172354048133	0	0	1443.0	1
464.013671875	0.2	FACES	1	0.567010676478276	0	0	1451.0	1
465.24365234375	0.2	FACES	1	0.601791789042181	0	0	1459.0	1
466.513671875	0.2	SCRAMBLED	0	0.465597408909161	0	0	1467.0	1
467.66357421875	0.2	SCRAMBLED	0	0.4725267062895	0	0	1475.0	1
468.95361328125	0.2	SCRAMBLED	0	0.508317209445522	0	0	1483.0	1
470.16357421875	0.2	SCRAMBLED	0	0.44823945256303	0	0	1491.0	1
471.5234375	0.2	FACES	1	0.543949844395684	0	0	1499.0	1
472.8232421875	0.2	FACES	1	0.511892637546225	0	0	1507.0	1
473.98291015625	0.2	SCRAMBLED	0	0.607382677963869	0	0	1515.0	1
475.39306640625	0.2	SCRAMBLED	0	0.533527524306919	0	0	1523.0	1
476.65283203125	0.2	FACES	1	0.457313704952867	0	0	1531.0	1
477.892578125	0.2	SCRAMBLED	0	0.474089088378605	0	0	1539.0	1
479.12255859375	0.2	FACES	1	0.462033451155548	0	0	1547.0	1
480.3427734375	0.2	FACES	1	0.561794384962923	0	0	1555.0	1
481.74267578125	0.2	SCRAMBLED	0	0.434724364527938	0	0	1563.0	1
482.892578125	0.2	FACES	1	0.652908487755667	0	0	1571.0	1
484.38232421875	0.2	SCRAMBLED	0	0.513289303296915	0	0	1579.0	1
485.58203125	0.2	FACES	1	0.458223182780785	0	0	1587.0	1
486.85205078125	0.2	SCRAMBLED	0	n/a	0	1	1595.0	0
488.73193359375	0.2	FACES	1	0.562578292669059	0	0	1597.0	1
489.98193359375	0.2	SCRAMBLED	0	0.662580103776236	0	0	1605.0	1
491.62158203125	0.2	SCRAMBLED	0	0.548332422748899	0	0	1611.0	1
492.8515625	0.2	SCRAMBLED	0	0.562290628424307	0	0	1619.0	1
494.13134765625	0.2	FACES	1	0.398064227910254	0	0	1627.0	1
495.271484375	0.2	FACES	1	0.456835572566888	0	0	1635.0	1
496.62158203125	0.2	SCRAMBLED	0	0.453555656843491	0	0	1643.0	1
497.80126953125	0.2	SCRAMBLED	0	0.582554808641362	0	0	1651.0	1
499.041015625	0.2	FACES	1	0.523141426368056	0	0	1659.0	1
500.4111328125	0.2	FACES	1	0.477284787602912	0	0	1667.0	1
501.8408203125	0.2	FACES	1	0.492097534176537	0	0	1675.0	1
503.041015625	0.2	FACES	1	0.502615842964588	0	0	1683.0	1
504.33056640625	0.2	FACES	1	0.407775990147456	0	0	1691.0	1
505.61083984375	0.2	SCRAMBLED	0	n/a	0	1	1699.0	0
507.45068359375	0.2	SCRAMBLED	0	0.553081448523699	0	0	1701.0	1
508.66064453125	0.2	FACES	1	0.532162854789021	0	0	1709.0	1
509.93017578125	0.2	SCRAMBLED	0	0.452804047221434	0	0	1717.0	1
511.2705078125	0.2	FACES	1	n/a	0	1	1725.0	0
513.27001953125	0.2	SCRAMBLED	0	0.64860922034768	0	0	1727.0	1
514.7998046875	0.2	SCRAMBLED	0	0.61348248809918	0	0	1733.0	1
516.31982421875	0.2	FACES	1	0.542883403916676	0	0	1739.0	1
517.78955078125	0.2	SCRAMBLED	0	0.728054659225563	0	0	1747.0	1
519.41943359375	0.2	SCRAMBLED	0	0.50880590662473	0	0	1753.0	1
520.61962890625	0.2	SCRAMBLED	0	0.582584390064767	0	0	1761.0	1
522.15966796875	0.2	FACES	1	0.552494649686196	0	0	1767.0	1
523.439453125	0.2	FACES	1	0.587306249226458	0	0	1775.0	1
524.70947265625	0.2	SCRAMBLED	0	0.712234031314438	0	0	1783.0	1
526.35888671875	0.2	SCRAMBLED	0	0.544354325075801	0	0	1789.0	1
527.7490234375	0.2	SCRAMBLED	0	0.802751676029402	0	0	1797.0	1
529.2587890625	0.2	FACES	1	0.562474153986841	0	0	1803.0	1
530.5986328125	0.2	SCRAMBLED	0	0.613323412489081	0	0	1811.0	1
532.048828125	0.2	FACES	1	0.516271895535283	0	0	1819.0	1
533.228515625	0.2	FACES	1	0.502042627434093	0	0	1827.0	1
534.58837890625	0.2	SCRAMBLED	0	0.569856228247772	0	0	1835.0	1
536.03857421875	0.2	SCRAMBLED	0	0.404770457213999	0	0	1843.0	1
537.34814453125	0.2	FACES	1	0.543505217498932	0	0	1851.0	1
538.68798828125	0.2	FACES	1	0.486141405238413	0	0	1859.0	1
539.8681640625	0.2	SCRAMBLED	0	0.807174702450538	0	0	1867.0	1
541.63818359375	0.2	FACES	1	0.432006797690519	0	0	1872.0	1
542.9580078125	0.2	SCRAMBLED	0	0.532784970222565	0	0	1880.0	1
544.2578125	0.2	FACES	1	0.572576209894578	0	0	1888.0	1
545.677734375	0.2	FACES	1	0.543604828412754	0	0	1896.0	1
546.8974609375	0.2	FACES	1	0.481298805574625	0	0	1904.0	1
548.27734375	0.2	FACES	1	0.452838458264523	0	0	1912.0	1
549.447265625	0.2	SCRAMBLED	0	0.587887614740794	0	0	1920.0	1
550.71728515625	0.2	SCRAMBLED	0	0.502828346247952	0	0	1928.0	1
551.89697265625	0.2	SCRAMBLED	0	0.493592905288097	0	0	1936.0	1
553.17724609375	0.2	SCRAMBLED	0	0.433543220572574	0	0	1944.0	1
554.44677734375	0.2	FACES	1	0.499104407330378	0	0	1952.0	1
555.6669921875	0.2	SCRAMBLED	0	0.577112732387832	0	0	1960.0	1
557.1669921875	0.2	SCRAMBLED	0	0.35401990407172	0	0	1967.0	1
n/a	0.2	FACES	1	n/a	1	1	n/a	0
559.5166015625	0.2	FACES	1	0.522725777191226	0	0	1975.0	1
560.95654296875	0.2	FACES	1	0.463513427853286	0	0	1983.0	1
562.1064453125	0.2	FACES	1	0.42736372170566	0	0	1991.0	1
563.4560546875	0.2	FACES	1	0.378281198591139	0	0	1999.0	1
564.6259765625	0.2	FACES	1	0.478053904596891	0	0	2007.0	1
565.85595703125	0.2	SCRAMBLED	0	0.537859995351027	0	0	2015.0	1
567.255859375	0.2	FACES	1	0.412736915503046	0	0	2023.0	1
568.52587890625	0.2	FACES	1	0.452565282879732	0	0	2031.0	1
569.7255859375	0.2	FACES	1	0.432381093245567	0	0	2039.0	1
571.02587890625	0.2	FACES	1	0.464088152640215	0	0	2047.0	1
572.36572265625	0.2	SCRAMBLED	0	0.585031196326781	0	0	2055.0	1
573.66552734375	0.2	SCRAMBLED	0	0.537972284017997	0	0	2063.0	1
575.04541015625	0.2	SCRAMBLED	0	0.463659825711147	0	0	2071.0	1
576.18505859375	0.2	FACES	1	0.477281467238754	0	0	2079.0	1
577.43505859375	0.2	SCRAMBLED	0	0.62836949008215	0	0	2087.0	1
578.78515625	0.2	FACES	1	0.51623476783152	0	0	2095.0	1
580.06494140625	0.2	SCRAMBLED	0	0.477874906803663	0	0	2103.0	1
581.4248046875	0.2	FACES	1	0.618935430998135	0	0	2111.0	1
582.9248046875	0.2	FACES	1	0.588616887370335	0	0	2118.0	1
690.2666015625	0.2	FACES	1	0.511813854368484	0	0	2122.0	1
691.65625	0.2	FACES	1	0.408786286293434	0	0	2130.0	1
692.92626953125	0.2	FACES	1	0.432535037383786	0	0	2138.0	1
694.2763671875	0.2	SCRAMBLED	0	0.548476103945177	0	0	2146.0	1
695.60595703125	0.2	SCRAMBLED	0	0.413253081146649	0	0	2154.0	1
696.755859375	0.2	SCRAMBLED	0	0.443066325776272	0	0	2162.0	1
698.076171875	0.2	SCRAMBLED	0	0.485022442640002	0	0	2170.0	1
699.27587890625	0.2	FACES	1	0.422747812333	0	0	2178.0	1
700.36572265625	0.2	SCRAMBLED	0	0.518345915499594	0	0	2186.0	1
701.595703125	0.2	SCRAMBLED	0	0.526512803021433	0	0	2194.0	1
702.82568359375	0.2	SCRAMBLED	0	0.507439727851306	0	0	2202.0	1
704.265625	0.2	FACES	1	0.508096858030513	0	0	2210.0	1
705.58544921875	0.2	SCRAMBLED	0	0.498956802067369	0	0	2218.0	1
706.91552734375	0.2	SCRAMBLED	0	0.464872362197639	0	0	2226.0	1
708.10498046875	0.2	FACES	1	0.522195726390237	0	0	2234.0	1
709.455078125	0.2	FACES	1	0.427463332618572	0	0	2242.0	1
710.8349609375	0.2	SCRAMBLED	0	0.449035132467543	0	0	2250.0	1
712.1748046875	0.2	FACES	1	0.477046325111587	0	0	2258.0	1
713.45458984375	0.2	SCRAMBLED	0	n/a	0	1	2266.0	0
715.2548828125	0.2	FACES	1	0.519707566505531	0	0	2268.0	1
716.50439453125	0.2	SCRAMBLED	0	0.482526434623651	0	0	2276.0	1
717.95458984375	0.2	FACES	1	0.533420970814404	0	0	2284.0	1
719.17431640625	0.2	SCRAMBLED	0	n/a	0	1	2292.0	0
720.994140625	0.2	SCRAMBLED	0	0.613973901940881	0	0	2294.0	1
722.494140625	0.2	SCRAMBLED	0	0.451726438245714	0	0	2301.0	1
723.7138671875	0.2	FACES	1	0.502577507855676	0	0	2309.0	1
725.09375	0.2	SCRAMBLED	0	0.764510140692437	0	0	2317.0	1
726.78369140625	0.2	SCRAMBLED	0	0.459239515951595	0	0	2323.0	1
728.11376953125	0.2	FACES	1	0.57815623217175	0	0	2331.0	1
729.46337890625	0.2	FACES	1	0.45874115953211	0	0	2339.0	1
730.88330078125	0.2	SCRAMBLED	0	0.449712486681165	0	0	2347.0	1
732.00341796875	0.2	FACES	1	0.602566037508041	0	0	2355.0	1
733.38330078125	0.2	FACES	1	0.578334324412026	0	0	2363.0	1
n/a	0.2	FACES	1	0.476222874891391	1	0	n/a	1
n/a	0.2	SCRAMBLED	0	0.572073627557984	1	0	n/a	1
737.47314453125	0.2	SCRAMBLED	0	0.373898922089211	0	0	2370.0	1
738.74267578125	0.2	FACES	1	0.933680261040536	0	0	2378.0	1
740.5625	0.2	FACES	1	0.438462188602898	0	0	2383.0	1
741.79248046875	0.2	SCRAMBLED	0	0.503277199061813	0	0	2391.0	1
743.142578125	0.2	FACES	1	0.543326521556992	0	0	2399.0	1
744.58251953125	0.2	SCRAMBLED	0	0.412966624306137	0	0	2407.0	1
745.83251953125	0.2	FACES	1	0.57778525698177	0	0	2415.0	1
747.2822265625	0.2	SCRAMBLED	0	0.413551612035917	0	0	2423.0	1
748.56201171875	0.2	SCRAMBLED	0	0.479365146442433	0	0	2431.0	1
749.80224609375	0.2	SCRAMBLED	0	0.438247572361433	0	0	2439.0	1
750.9521484375	0.2	FACES	1	0.790253524867694	0	0	2447.0	1
752.48193359375	0.2	SCRAMBLED	0	0.471945340775164	0	0	2453.0	1
753.75146484375	0.2	FACES	1	0.553725900950667	0	0	2461.0	1
755.00146484375	0.2	SCRAMBLED	0	0.452675156735495	0	0	2469.0	1
756.4013671875	0.2	FACES	1	0.553464799616449	0	0	2477.0	1
757.72119140625	0.2	FACES	1	0.520395183661094	0	0	2485.0	1
759.021484375	0.2	FACES	1	0.537874786063185	0	0	2493.0	1
760.27099609375	0.2	FACES	1	0.562975227067909	0	0	2501.0	1
761.611328125	0.2	FACES	1	0.417888912702438	0	0	2509.0	1
762.9111328125	0.2	SCRAMBLED	0	0.523633142060135	0	0	2517.0	1
764.3310546875	0.2	SCRAMBLED	0	0.523478896069719	0	0	2525.0	1
765.5908203125	0.2	SCRAMBLED	0	0.852259205708833	0	0	2533.0	1
767.380859375	0.2	SCRAMBLED	0	0.863894665986663	0	0	2538.0	1
769.1005859375	0.2	FACES	1	0.833510620635934	0	0	2543.0	1
770.7705078125	0.2	FACES	1	n/a	0	1	2549.0	0
772.650390625	0.2	SCRAMBLED	0	n/a	0	1	2551.0	0
774.5703125	0.2	SCRAMBLED	0	0.982770330437233	0	0	2553.0	1
776.43994140625	0.2	FACES	1	1.00877692890481	0	0	2558.0	1
778.19970703125	0.2	FACES	1	1.05167934944984	0	0	2562.0	1
780.01953125	0.2	SCRAMBLED	0	0.877402509591775	0	0	2566.0	1
781.8095703125	0.2	SCRAMBLED	0	0.826969805818408	0	0	2571.0	1
783.32958984375	0.2	SCRAMBLED	0	1.07292575364772	0	0	2577.0	1
785.3291015625	0.2	FACES	1	0.788777472236688	0	0	2581.0	1
787.029296875	0.2	SCRAMBLED	0	0.648482140971282	0	0	2587.0	1
788.64892578125	0.2	SCRAMBLED	0	0.818387269121558	0	0	2593.0	1
790.31884765625	0.2	FACES	1	0.743050025807861	0	0	2599.0	1
791.7685546875	0.2	SCRAMBLED	0	0.756814442978794	0	0	2607.0	1
793.46875	0.2	FACES	1	0.858711578108341	0	0	2613.0	1
795.24853515625	0.2	FACES	1	0.687446911911138	0	0	2618.0	1
796.7685546875	0.2	FACES	1	0.988244704773933	0	0	2624.0	1
798.41845703125	0.2	FACES	1	n/a	0	1	2630.0	0
n/a	0.2	FACES	1	0.446883234879351	1	0	n/a	1
801.3681640625	0.2	FACES	1	0.607433690825928	0	0	2636.0	1
802.658203125	0.2	SCRAMBLED	0	0.647505048462335	0	0	2644.0	1
804.0576171875	0.2	FACES	1	0.582252957387027	0	0	2652.0	1
805.3779296875	0.2	SCRAMBLED	0	0.643206082906545	0	0	2660.0	1
806.857421875	0.2	SCRAMBLED	0	0.605570061185063	0	0	2668.0	1
808.25732421875	0.2	SCRAMBLED	0	0.528662587650615	0	0	2676.0	1
809.52734375	0.2	SCRAMBLED	0	0.680663710536464	0	0	2684.0	1
810.947265625	0.2	SCRAMBLED	0	0.502464313635755	0	0	2692.0	1
812.3671875	0.2	SCRAMBLED	0	0.509128283764767	0	0	2700.0	1
813.5869140625	0.2	SCRAMBLED	0	0.556740489421827	0	0	2708.0	1
815.0869140625	0.2	FACES	1	0.508932684151659	0	0	2715.0	1
816.31689453125	0.2	SCRAMBLED	0	0.492482696376101	0	0	2723.0	1
817.69677734375	0.2	SCRAMBLED	0	0.693703382847161	0	0	2731.0	1
819.13671875	0.2	FACES	1	0.647477278146653	0	0	2739.0	1
820.63671875	0.2	SCRAMBLED	0	0.538246968659223	0	0	2746.0	1
821.88671875	0.2	FACES	1	0.672057931292329	0	0	2754.0	1
823.28662109375	0.2	SCRAMBLED	0	0.532897258888624	0	0	2762.0	1
824.486328125	0.2	SCRAMBLED	0	0.607698414375591	0	0	2770.0	1
825.92626953125	0.2	FACES	1	0.54651075043239	0	0	2778.0	1
827.15625	0.2	FACES	1	0.587395295347051	0	0	2786.0	1
828.576171875	0.2	SCRAMBLED	0	0.523087998695701	0	0	2794.0	1
829.755859375	0.2	SCRAMBLED	0	0.528021153735608	0	0	2802.0	1
831.17578125	0.2	SCRAMBLED	0	0.504925005056066	0	0	2810.0	1
832.5654296875	0.2	SCRAMBLED	0	0.603555807769226	0	0	2818.0	1
834.015625	0.2	SCRAMBLED	0	0.543500991580913	0	0	2826.0	1
835.49560546875	0.2	SCRAMBLED	0	0.472393288035164	0	0	2834.0	1
836.79541015625	0.2	FACES	1	0.55815556809921	0	0	2842.0	1
838.3154296875	0.2	FACES	1	0.483992224311805	0	0	2848.0	1
839.50537109375	0.2	FACES	1	0.562831847722009	0	0	2856.0	1
841.01513671875	0.2	FACES	1	0.483661093486262	0	0	2862.0	1
842.1748046875	0.2	SCRAMBLED	0	0.537479964623344	0	0	2870.0	1
843.375	0.2	SCRAMBLED	0	0.517314187914963	0	0	2878.0	1
844.634765625	0.2	FACES	1	0.572143958899687	0	0	2886.0	1
845.95458984375	0.2	FACES	1	0.494934030408331	0	0	2894.0	1
847.12451171875	0.2	FACES	1	0.556956916770105	0	0	2902.0	1
848.4443359375	0.2	SCRAMBLED	0	0.53763209765566	0	0	2910.0	1
849.64453125	0.2	SCRAMBLED	0	0.467468282980008	0	0	2918.0	1
850.994140625	0.2	FACES	1	0.468394060774699	0	0	2926.0	1
852.34423828125	0.2	FACES	1	0.568173709359144	0	0	2934.0	1
853.88427734375	0.2	SCRAMBLED	0	0.669334025578792	0	0	2940.0	1
855.244140625	0.2	FACES	1	0.461864112602598	0	0	2948.0	1
856.56396484375	0.2	FACES	1	0.563669484951788	0	0	2956.0	1
858.0634765625	0.2	FACES	1	n/a	0	1	2963.0	0
859.3134765625	0.2	FACES	1	0.402228265955273	0	0	2971.0	1
860.6533203125	0.2	SCRAMBLED	0	0.64403587200286	0	0	2979.0	1
862.00341796875	0.2	FACES	1	0.661903051414811	0	0	2987.0	1
863.4033203125	0.2	FACES	1	0.697717702670161	0	0	2995.0	1
864.75341796875	0.2	FACES	1	0.682539716079191	0	0	3003.0	1
866.203125	0.2	FACES	1	0.672460299014347	0	0	3011.0	1
867.703125	0.2	FACES	1	0.638181466936658	0	0	3018.0	1
869.22265625	0.2	SCRAMBLED	0	0.644981873831966	0	0	3024.0	1
870.712890625	0.2	FACES	1	0.628728693074663	0	0	3032.0	1
872.21240234375	0.2	SCRAMBLED	0	0.664514064758805	0	0	3039.0	1
873.54248046875	0.2	SCRAMBLED	0	0.81738633036457	0	0	3047.0	1
875.142578125	0.2	FACES	1	0.588213915946653	0	0	3053.0	1
876.412109375	0.2	FACES	1	0.577006782597891	0	0	3061.0	1
877.75244140625	0.2	FACES	1	0.481933900612603	0	0	3069.0	1
879.05224609375	0.2	SCRAMBLED	0	0.468563399328559	0	0	3077.0	1
880.40185546875	0.2	SCRAMBLED	0	0.4244946255385	0	0	3085.0	1
881.5517578125	0.2	SCRAMBLED	0	0.533411915275792	0	0	3093.0	1
882.8017578125	0.2	FACES	1	0.64227547549126	0	0	3101.0	1
884.271484375	0.2	SCRAMBLED	0	0.482994605918066	0	0	3109.0	1
885.7216796875	0.2	FACES	1	0.413885761375241	0	0	3117.0	1
886.8916015625	0.2	SCRAMBLED	0	0.597724343398113	0	0	3125.0	1
888.3212890625	0.2	FACES	1	0.498355212518618	0	0	3133.0	1
889.771484375	0.2	SCRAMBLED	0	0.489901566306798	0	0	3141.0	1
891.02099609375	0.2	FACES	1	0.422236778160368	0	0	3149.0	1
892.27099609375	0.2	FACES	1	0.439001898644165	0	0	3157.0	1
893.541015625	0.2	FACES	1	0.339195989000473	0	0	3165.0	1
894.8408203125	0.2	SCRAMBLED	0	0.457673209795757	0	0	3173.0	1
896.2607421875	0.2	FACES	1	0.633510922487403	0	0	3181.0	1
897.7607421875	0.2	FACES	1	0.393388853840406	0	0	3188.0	1
898.8603515625	0.2	SCRAMBLED	0	0.508300003923978	0	0	3196.0	1
n/a	0.2	SCRAMBLED	0	0.497011068885513	1	0	n/a	1
977.5546875	0.2	SCRAMBLED	0	0.354115892771006	0	0	3204.0	1
978.87451171875	0.2	FACES	1	0.443922375931834	0	0	3212.0	1
980.1943359375	0.2	SCRAMBLED	0	0.453874109915887	0	0	3220.0	1
981.314453125	0.2	FACES	1	0.532628913124427	0	0	3228.0	1
982.5439453125	0.2	FACES	1	0.522537120157722	0	0	3236.0	1
983.8642578125	0.2	FACES	1	0.43818357989494	0	0	3244.0	1
985.14404296875	0.2	SCRAMBLED	0	0.50813247647875	0	0	3252.0	1
986.44384765625	0.2	FACES	1	0.518680366689296	0	0	3260.0	1
987.8037109375	0.2	SCRAMBLED	0	0.444917881366564	0	0	3268.0	1
989.11376953125	0.2	FACES	1	0.419650516618276	0	0	3276.0	1
990.40380859375	0.2	SCRAMBLED	0	0.389452411640377	0	0	3284.0	1
991.68359375	0.2	SCRAMBLED	0	0.454229992544242	0	0	3292.0	1
993.08349609375	0.2	SCRAMBLED	0	0.468125111307018	0	0	3300.0	1
994.5234375	0.2	FACES	1	0.423967895100759	0	0	3308.0	1
995.72314453125	0.2	SCRAMBLED	0	0.472830368650648	0	0	3316.0	1
997.04296875	0.2	FACES	1	0.448614049968455	0	0	3324.0	1
998.27294921875	0.2	SCRAMBLED	0	0.384425079009816	0	0	3332.0	1
999.462890625	0.2	FACES	1	0.493272037405404	0	0	3340.0	1
1000.86279296875	0.2	FACES	1	0.443145410804391	0	0	3348.0	1
1002.212890625	0.2	FACES	1	0.653975230085962	0	0	3356.0	1
1003.53271484375	0.2	FACES	1	0.571811922520283	0	0	3364.0	1
1004.9326171875	0.2	FACES	1	0.358633096781887	0	0	3372.0	1
1006.09228515625	0.2	FACES	1	0.423439353555295	0	0	3380.0	1
1007.3623046875	0.2	SCRAMBLED	0	0.419124691734396	0	0	3388.0	1
1008.7021484375	0.2	FACES	1	0.463285530156099	0	0	3396.0	1
1009.912109375	0.2	FACES	1	0.411954517052436	0	0	3404.0	1
1011.11181640625	0.2	FACES	1	0.508851788015818	0	0	3412.0	1
1012.5517578125	0.2	FACES	1	0.407593370138784	0	0	3420.0	1
1013.751953125	0.2	SCRAMBLED	0	0.463588588815583	0	0	3428.0	1
1015.07177734375	0.2	SCRAMBLED	0	0.668333992374755	0	0	3436.0	1
1016.4716796875	0.2	SCRAMBLED	0	0.513171581307688	0	0	3444.0	1
1017.6513671875	0.2	FACES	1	0.471677598712631	0	0	3452.0	1
1018.79150390625	0.2	SCRAMBLED	0	0.476912906858161	0	0	3460.0	1
1020.21142578125	0.2	SCRAMBLED	0	0.428627271053301	0	0	3468.0	1
1021.541015625	0.2	FACES	1	0.443473221265776	0	0	3476.0	1
1022.7109375	0.2	FACES	1	0.546380350690924	0	0	3484.0	1
1023.93115234375	0.2	SCRAMBLED	0	0.508150285702868	0	0	3492.0	1
1025.14111328125	0.2	FACES	1	0.921706123656804	0	0	3500.0	1
1026.86083984375	0.2	SCRAMBLED	0	0.509817108325478	0	0	3505.0	1
1028.25048828125	0.2	FACES	1	0.511645421369394	0	0	3513.0	1
1029.46044921875	0.2	SCRAMBLED	0	0.517143340104667	0	0	3521.0	1
1030.7802734375	0.2	FACES	1	0.463327487480456	0	0	3529.0	1
1031.93017578125	0.2	SCRAMBLED	0	0.49374534017079	0	0	3537.0	1
1033.22021484375	0.2	SCRAMBLED	0	0.492951773225286	0	0	3545.0	1
1034.3701171875	0.2	SCRAMBLED	0	0.5178454461211	0	0	3553.0	1
1035.5703125	0.2	FACES	1	0.536640214434556	0	0	3561.0	1
1036.990234375	0.2	FACES	1	0.428432878845342	0	0	3569.0	1
1038.2900390625	0.2	SCRAMBLED	0	0.498420110538063	0	0	3577.0	1
1039.58984375	0.2	FACES	1	0.562216976718446	0	0	3585.0	1
1040.9697265625	0.2	FACES	1	0.428954477812113	0	0	3593.0	1
1042.28955078125	0.2	SCRAMBLED	0	0.443594565469539	0	0	3601.0	1
1043.4296875	0.2	FACES	1	0.587700165112437	0	0	3609.0	1
1044.78955078125	0.2	SCRAMBLED	0	0.363455774263457	0	0	3617.0	1
1045.939453125	0.2	SCRAMBLED	0	0.624362112837844	0	0	3625.0	1
1047.30908203125	0.2	SCRAMBLED	0	0.462160530533765	0	0	3633.0	1
1048.67919921875	0.2	FACES	1	0.583907404109596	0	0	3641.0	1
1050.14892578125	0.2	FACES	1	0.448697059063306	0	0	3649.0	1
1051.26904296875	0.2	FACES	1	0.60802894149856	0	0	3657.0	1
1052.72900390625	0.2	SCRAMBLED	0	0.428443141789103	0	0	3665.0	1
1054.12890625	0.2	SCRAMBLED	0	0.42838428079358	0	0	3673.0	1
1055.33837890625	0.2	FACES	1	0.538107815231342	0	0	3681.0	1
1056.78857421875	0.2	SCRAMBLED	0	0.669861359719107	0	0	3689.0	1
1058.2685546875	0.2	FACES	1	0.512691637813987	0	0	3697.0	1
1059.50830078125	0.2	FACES	1	0.44762427970727	0	0	3705.0	1
1060.88818359375	0.2	SCRAMBLED	0	n/a	0	1	3713.0	0
1062.7080078125	0.2	SCRAMBLED	0	n/a	0	1	3715.0	1
1063.837890625	0.2	SCRAMBLED	0	0.374128027190636	0	0	3721.0	1
1064.90771484375	0.2	FACES	1	0.452886150762424	0	0	3729.0	1
1066.27783203125	0.2	SCRAMBLED	0	0.47841461684493	0	0	3737.0	1
1067.65771484375	0.2	SCRAMBLED	0	0.448598655554633	0	0	3745.0	1
1068.94775390625	0.2	FACES	1	0.4774055281041	0	0	3753.0	1
1070.07763671875	0.2	FACES	1	0.591854543918089	0	0	3761.0	1
1071.42724609375	0.2	FACES	1	0.472151203330213	0	0	3769.0	1
1072.67724609375	0.2	FACES	1	0.428911614934805	0	0	3777.0	1
1074.04736328125	0.2	FACES	1	0.398823081961382	0	0	3785.0	1
1075.2373046875	0.2	SCRAMBLED	0	1.13444545396942	0	0	3793.0	1
1077.14697265625	0.2	SCRAMBLED	0	0.504335791408266	0	0	3797.0	1
1078.48681640625	0.2	SCRAMBLED	0	0.494280824294947	0	0	3805.0	1
1079.65673828125	0.2	SCRAMBLED	0	0.518085116015754	0	0	3813.0	1
1081.056640625	0.2	FACES	1	0.448865190211109	0	0	3821.0	1
1082.33642578125	0.2	SCRAMBLED	0	n/a	0	1	3829.0	0
1083.42626953125	0.2	SCRAMBLED	0	0.767313735137577	0	0	3837.0	1
1085.0263671875	0.2	FACES	1	0.548340572732741	0	0	3843.0	1
1086.4560546875	0.2	FACES	1	0.408170207884723	0	0	3851.0	1
1087.826171875	0.2	SCRAMBLED	0	0.38897095889115	0	0	3859.0	1
1088.94580078125	0.2	FACES	1	0.507854773324652	0	0	3867.0	1
1090.26611328125	0.2	FACES	1	0.503640326119239	0	0	3875.0	1
n/a	0.2	FACES	1	0.457527717490848	1	0	n/a	1
1092.9658203125	0.2	FACES	1	0.413336392092788	0	0	3883.0	1
1094.28564453125	0.2	SCRAMBLED	0	0.639119318781923	0	0	3891.0	1
1095.6357421875	0.2	SCRAMBLED	0	0.447000353166004	0	0	3899.0	1
1096.8154296875	0.2	FACES	1	0.456838591079759	0	0	3907.0	1
1098.13525390625	0.2	FACES	1	0.483506847495846	0	0	3915.0	1
1099.4150390625	0.2	SCRAMBLED	0	0.478442689011899	0	0	3923.0	1
1100.8349609375	0.2	SCRAMBLED	0	0.453315081394067	0	0	3931.0	1
1102.2548828125	0.2	SCRAMBLED	0	0.388119134652698	0	0	3939.0	1
1103.48486328125	0.2	SCRAMBLED	0	0.713896929871225	0	0	3947.0	1
1105.125	0.2	FACES	1	0.568857100597597	0	0	3953.0	1
1106.62451171875	0.2	FACES	1	0.388655524330716	0	0	3960.0	1
1107.9443359375	0.2	FACES	1	0.388227197401648	0	0	3968.0	1
1109.14453125	0.2	FACES	1	0.463284322750951	0	0	3976.0	1
1110.34423828125	0.2	FACES	1	0.397115811270851	0	0	3984.0	1
1111.494140625	0.2	FACES	1	0.423003178493673	0	0	3992.0	1
1112.7744140625	0.2	SCRAMBLED	0	0.518428320891871	0	0	4000.0	1
1114.06396484375	0.2	SCRAMBLED	0	0.457655400571639	0	0	4008.0	1
1115.19384765625	0.2	SCRAMBLED	0	0.522414568548811	0	0	4016.0	1
1116.53369140625	0.2	SCRAMBLED	0	0.418368252492655	0	0	4024.0	1
1117.6337890625	0.2	FACES	1	0.557122934959807	0	0	4032.0	1
1118.853515625	0.2	SCRAMBLED	0	0.527949916840043	0	0	4040.0	1
1120.0634765625	0.2	SCRAMBLED	0	0.512592932454936	0	0	4048.0	1
1121.46337890625	0.2	FACES	1	0.598642574911537	0	0	4056.0	1
1122.83349609375	0.2	FACES	1	0.408420744424802	0	0	4064.0	1
1124.13330078125	0.2	FACES	1	0.348310085756566	0	0	4072.0	1
1125.2431640625	0.2	SCRAMBLED	0	0.567150735460928	0	0	4080.0	1
1126.693359375	0.2	FACES	1	0.549945817700063	0	0	4088.0	1
1128.0029296875	0.2	FACES	1	n/a	0	1	4096.0	0
1129.4228515625	0.2	FACES	1	0.393591396031297	0	0	4104.0	1
1130.64306640625	0.2	FACES	1	0.407622649710902	0	0	4112.0	1
1131.7626953125	0.2	SCRAMBLED	0	0.507407731617604	0	0	4120.0	1
1133.0625	0.2	FACES	1	0.477119976817448	0	0	4128.0	1
1134.29248046875	0.2	FACES	1	0.532042114286924	0	0	4136.0	1
1135.63232421875	0.2	FACES	1	0.48383797832048	0	0	4144.0	1
1137.04248046875	0.2	SCRAMBLED	0	0.574648418752076	0	0	4152.0	1
1138.30224609375	0.2	FACES	1	0.467576949430622	0	0	4160.0	1
1139.58203125	0.2	SCRAMBLED	0	0.458200242083876	0	0	4168.0	1
1141.001953125	0.2	SCRAMBLED	0	0.43913018542753	0	0	4176.0	1
1142.35205078125	0.2	SCRAMBLED	0	0.488892175713772	0	0	4184.0	1
1143.70166015625	0.2	SCRAMBLED	0	0.368749037848829	0	0	4192.0	1
1144.8818359375	0.2	SCRAMBLED	0	0.379629568141354	0	0	4200.0	1
1146.1015625	0.2	SCRAMBLED	0	0.422563683068802	0	0	4208.0	1
1147.3916015625	0.2	SCRAMBLED	0	0.478378696545406	0	0	4216.0	1
1148.6416015625	0.2	SCRAMBLED	0	0.504122986274524	0	0	4224.0	1
1149.8115234375	0.2	SCRAMBLED	0	0.515853529696869	0	0	4232.0	1
1151.21142578125	0.2	SCRAMBLED	0	0.494843776883499	0	0	4240.0	1
1152.44091796875	0.2	FACES	1	0.537637832829205	0	0	4248.0	1
1153.64111328125	0.2	FACES	1	0.432433011659668	0	0	4256.0	1
1154.78076171875	0.2	SCRAMBLED	0	0.548379209693849	0	0	4264.0	1
1156.24072265625	0.2	SCRAMBLED	0	0.569106127882151	0	0	4272.0	1
1157.6005859375	0.2	FACES	1	0.54891741047868	0	0	4280.0	1
1158.880859375	0.2	FACES	1	0.50785809368881	0	0	4288.0	1
1160.310546875	0.2	SCRAMBLED	0	0.753677001047436	0	0	4296.0	1
1162.00048828125	0.2	SCRAMBLED	0	0.482535188310067	0	0	4302.0	1
1163.400390625	0.2	SCRAMBLED	0	0.538057707922235	0	0	4310.0	1
1164.900390625	0.2	SCRAMBLED	0	0.580103776460419	0	0	4317.0	1
1166.2900390625	0.2	FACES	1	0.473904053560545	0	0	4325.0	1
1167.490234375	0.2	FACES	1	0.566770704732335	0	0	4333.0	1
1168.8896484375	0.2	FACES	1	0.546600702105934	0	0	4341.0	1
1170.3095703125	0.2	SCRAMBLED	0	0.649362641078369	0	0	4349.0	1
n/a	0.2	SCRAMBLED	0	0.549143798919431	1	0	n/a	1
