onset	duration	trial_type	trial_type_id	response_time	bad_epoch	outliers	direction	name_direction	event_num	response_accuracy
34.9140625	0.2	RANDOM	0	n/a	0	1	0	NONE	1.0	0
36.94384765625	0.2	RANDOM	0	0.674016326048331	0	0	0	NONE	2.0	1
38.244140625	0.2	RANDOM	0	0.63309375101926	0	0	0	NONE	6.0	1
39.73388671875	0.2	RANDOM	0	0.539950340900759	0	0	0	NONE	10.0	1
41.06396484375	0.2	COHERENT	1	0.40987078733724	0	0	180	LEFT	14.0	1
42.20361328125	0.2	RANDOM	0	0.594674354389099	0	0	0	NONE	18.0	1
43.41357421875	0.2	RANDOM	0	0.523457374430109	0	0	0	NONE	22.0	1
44.66357421875	0.2	RANDOM	0	0.544407042826606	0	0	0	NONE	26.0	1
46.08349609375	0.2	RANDOM	0	0.624115451067155	0	0	0	NONE	30.0	1
47.533203125	0.2	COHERENT	1	0.515079438862813	0	0	180	LEFT	34.0	1
48.67333984375	0.2	RANDOM	0	0.622886047278371	0	0	0	NONE	38.0	1
50.0029296875	0.2	COHERENT	1	0.937722080490857	0	0	180	LEFT	42.0	1
51.64306640625	0.2	COHERENT	1	0.738536028503404	0	0	180	LEFT	45.0	1
53.052734375	0.2	COHERENT	1	0.833319649815166	0	0	180	LEFT	49.0	1
54.79248046875	0.2	COHERENT	1	0.738957400388244	0	0	0	RIGHT	52.0	1
56.3125	0.2	COHERENT	1	0.494903996030189	0	0	180	LEFT	55.0	1
57.47265625	0.2	COHERENT	1	0.772658699638669	0	0	180	LEFT	59.0	1
58.88232421875	0.2	RANDOM	0	0.55357610712781	0	0	0	NONE	63.0	1
60.1123046875	0.2	COHERENT	1	0.653402306316821	0	0	0	RIGHT	67.0	1
61.51220703125	0.2	COHERENT	1	0.469197594436991	0	0	180	LEFT	71.0	1
62.8818359375	0.2	RANDOM	0	0.729957065947929	0	0	0	NONE	75.0	1
64.36181640625	0.2	COHERENT	1	0.659875918657235	0	0	0	RIGHT	79.0	1
65.921875	0.2	RANDOM	0	0.629632223237422	0	0	0	NONE	82.0	1
67.2216796875	0.2	RANDOM	0	0.713436631825971	0	0	0	NONE	86.0	1
68.82177734375	0.2	RANDOM	0	0.7651965536852	0	0	0	NONE	89.0	1
70.29150390625	0.2	RANDOM	0	0.598151276128192	0	0	0	NONE	93.0	1
71.7412109375	0.2	COHERENT	1	0.54990570445716	0	0	0	RIGHT	97.0	1
72.89111328125	0.2	COHERENT	1	n/a	0	1	0	RIGHT	101.0	0
74.31103515625	0.2	RANDOM	0	0.634437854891075	0	0	0	NONE	105.0	1
75.76123046875	0.2	RANDOM	0	0.604402128833499	0	0	0	NONE	109.0	1
77.22119140625	0.2	COHERENT	1	0.509057684483196	0	0	180	LEFT	113.0	1
78.5107421875	0.2	RANDOM	0	0.544983259825131	0	0	0	NONE	117.0	1
79.8408203125	0.2	RANDOM	0	0.679741067579926	0	0	0	NONE	121.0	1
81.380859375	0.2	RANDOM	0	0.759636014377065	0	0	0	NONE	124.0	1
82.900390625	0.2	RANDOM	0	0.589427731099022	0	0	0	NONE	127.0	1
84.38037109375	0.2	COHERENT	1	0.709102779725981	0	0	0	RIGHT	131.0	1
85.68017578125	0.2	RANDOM	0	0.748174155777633	0	0	0	NONE	135.0	1
87.3203125	0.2	RANDOM	0	0.634623186078898	0	0	0	NONE	138.0	1
88.5703125	0.2	COHERENT	1	0.513818341630213	0	0	180	LEFT	142.0	1
89.68994140625	0.2	COHERENT	1	0.768590166942886	0	0	180	LEFT	146.0	1
91.25	0.2	RANDOM	0	0.629386825426991	0	0	0	NONE	149.0	1
92.73974609375	0.2	RANDOM	0	0.778904722866173	0	0	0	NONE	153.0	1
94.41943359375	0.2	RANDOM	0	0.540097941797285	0	0	0	NONE	156.0	1
95.78955078125	0.2	COHERENT	1	0.55446865488193	0	0	0	RIGHT	160.0	1
97.2392578125	0.2	COHERENT	1	0.729643149929871	0	0	0	RIGHT	164.0	1
98.58935546875	0.2	RANDOM	0	0.483415877148218	0	0	0	NONE	168.0	1
99.92919921875	0.2	RANDOM	0	0.728958269694886	0	0	0	NONE	172.0	1
101.4091796875	0.2	COHERENT	1	0.56902801941942	0	0	0	RIGHT	176.0	1
102.798828125	0.2	COHERENT	1	n/a	0	1	0	RIGHT	180.0	0
104.39892578125	0.2	COHERENT	1	0.889669687906462	0	0	180	LEFT	183.0	1
106.1787109375	0.2	RANDOM	0	0.490318407431005	0	0	0	NONE	186.0	1
107.478515625	0.2	RANDOM	0	0.748346205902635	0	0	0	NONE	190.0	1
108.99853515625	0.2	COHERENT	1	0.624012824676356	0	0	0	RIGHT	193.0	1
110.48828125	0.2	RANDOM	0	0.639910859924385	0	0	0	NONE	197.0	1
111.88818359375	0.2	RANDOM	0	0.59482437002498	0	0	0	NONE	201.0	1
113.33837890625	0.2	RANDOM	0	0.719592102355818	0	0	0	NONE	205.0	1
114.80810546875	0.2	RANDOM	0	0.739364585684598	0	0	0	NONE	209.0	1
116.2080078125	0.2	RANDOM	0	0.93790741167868	0	0	0	NONE	213.0	1
117.7578125	0.2	RANDOM	0	0.702916823121996	0	0	0	NONE	216.0	1
119.28759765625	0.2	COHERENT	1	0.54471884594841	0	0	0	RIGHT	219.0	1
120.4375	0.2	RANDOM	0	0.758628766539005	0	0	0	NONE	223.0	1
122.04736328125	0.2	RANDOM	0	0.589434975315271	0	0	0	NONE	226.0	1
123.29736328125	0.2	RANDOM	0	0.82819044318876	0	0	0	NONE	230.0	1
124.947265625	0.2	COHERENT	1	0.545116070447875	0	0	180	LEFT	233.0	1
126.27734375	0.2	RANDOM	0	0.6897909077843	0	0	0	NONE	237.0	1
127.67724609375	0.2	COHERENT	1	0.588663164491663	0	0	0	RIGHT	241.0	1
129.046875	0.2	RANDOM	0	0.574325352219603	0	0	0	NONE	245.0	1
130.38671875	0.2	RANDOM	0	n/a	0	1	0	NONE	249.0	0
132.0166015625	0.2	COHERENT	1	0.929006081519219	0	0	180	LEFT	252.0	1
133.556640625	0.2	COHERENT	1	0.588806841436963	0	0	180	LEFT	255.0	1
134.91650390625	0.2	RANDOM	0	0.644834210084809	0	0	0	NONE	259.0	1
136.4365234375	0.2	RANDOM	0	0.644394123974962	0	0	0	NONE	262.0	1
137.75634765625	0.2	COHERENT	1	0.623208113039254	0	0	180	LEFT	266.0	1
139.0361328125	0.2	RANDOM	0	1.03803666056137	0	0	0	NONE	270.0	1
140.7060546875	0.2	COHERENT	1	0.603054402853559	0	0	180	LEFT	272.0	1
142.2060546875	0.2	COHERENT	1	0.719867986240388	0	0	0	RIGHT	276.0	1
143.67578125	0.2	RANDOM	0	0.619638827548442	0	0	0	NONE	280.0	1
145.02587890625	0.2	COHERENT	1	n/a	0	1	0	RIGHT	284.0	0
147.04541015625	0.2	RANDOM	0	n/a	0	1	0	NONE	285.0	0
148.91552734375	0.2	COHERENT	1	0.862931589248547	0	0	180	LEFT	286.0	1
150.53515625	0.2	COHERENT	1	0.589444332427774	0	0	180	LEFT	289.0	1
151.88525390625	0.2	COHERENT	1	0.654479279731277	0	0	0	RIGHT	293.0	1
153.4150390625	0.2	RANDOM	0	0.395027087330163	0	0	0	NONE	296.0	1
154.6650390625	0.2	COHERENT	1	0.608242770574179	0	0	180	LEFT	300.0	1
156.1650390625	0.2	COHERENT	1	0.709841991579196	0	0	0	RIGHT	304.0	1
157.7548828125	0.2	COHERENT	1	0.514875695293995	0	0	0	RIGHT	307.0	1
158.90478515625	0.2	RANDOM	0	0.683643586998187	0	0	0	NONE	311.0	1
160.29443359375	0.2	COHERENT	1	0.568503417458487	0	0	180	LEFT	315.0	1
161.67431640625	0.2	COHERENT	1	0.54436357753184	0	0	180	LEFT	319.0	1
162.9443359375	0.2	COHERENT	1	0.674183848538632	0	0	180	LEFT	323.0	1
164.32421875	0.2	RANDOM	0	n/a	0	1	0	NONE	327.0	0
166.1943359375	0.2	COHERENT	1	0.592688835577064	0	0	0	RIGHT	328.0	1
167.39404296875	0.2	RANDOM	0	0.508644462340271	0	0	0	NONE	332.0	1
168.6337890625	0.2	COHERENT	1	0.814935641179545	0	0	180	LEFT	336.0	1
170.1640625	0.2	RANDOM	0	0.573183180862543	0	0	0	NONE	339.0	1
171.6435546875	0.2	RANDOM	0	0.469104023316504	0	0	0	NONE	343.0	1
172.8134765625	0.2	COHERENT	1	0.657898549587117	0	0	0	RIGHT	347.0	1
174.103515625	0.2	RANDOM	0	0.972668781172615	0	0	0	NONE	351.0	1
175.8134765625	0.2	COHERENT	1	0.589576237523033	0	0	180	LEFT	354.0	1
177.2734375	0.2	COHERENT	1	0.549349710895513	0	0	180	LEFT	358.0	1
178.52294921875	0.2	COHERENT	1	0.787929808378067	0	0	0	RIGHT	362.0	1
180.123046875	0.2	COHERENT	1	0.804965185506262	0	0	180	LEFT	365.0	1
181.7529296875	0.2	RANDOM	0	0.524870600195754	0	0	0	NONE	368.0	1
183.07275390625	0.2	COHERENT	1	0.709498495014486	0	0	0	RIGHT	372.0	1
184.52294921875	0.2	RANDOM	0	0.654763313359581	0	0	0	NONE	376.0	1
185.8427734375	0.2	RANDOM	0	0.812067837251561	0	0	0	NONE	380.0	1
187.5625	0.2	COHERENT	1	0.567927200460872	0	0	0	RIGHT	383.0	1
188.91259765625	0.2	COHERENT	1	0.704888155344634	0	0	180	LEFT	387.0	1
190.412109375	0.2	COHERENT	1	0.749269239731802	0	0	180	LEFT	391.0	1
191.93212890625	0.2	COHERENT	1	0.574460275738602	0	0	180	LEFT	394.0	1
193.1318359375	0.2	COHERENT	1	n/a	0	1	0	RIGHT	398.0	0
195.001953125	0.2	COHERENT	1	n/a	0	1	180	LEFT	399.0	0
196.8818359375	0.2	COHERENT	1	0.673584993364784	0	0	0	RIGHT	400.0	1
198.32177734375	0.2	RANDOM	0	0.614646959179481	0	0	0	NONE	404.0	1
199.84130859375	0.2	RANDOM	0	0.729286674144532	0	0	0	NONE	407.0	1
201.44140625	0.2	RANDOM	0	0.724201536498185	0	0	0	NONE	410.0	1
203.0712890625	0.2	COHERENT	1	0.689941225262373	0	0	0	RIGHT	413.0	1
204.4111328125	0.2	COHERENT	1	0.617867314943396	0	0	180	LEFT	417.0	1
205.9208984375	0.2	RANDOM	0	0.499654390538126	0	0	0	NONE	420.0	1
207.02099609375	0.2	COHERENT	1	0.858179685528739	0	0	0	RIGHT	424.0	1
208.7109375	0.2	RANDOM	0	0.604342665896183	0	0	0	NONE	427.0	1
210.03076171875	0.2	COHERENT	1	0.698044182471676	0	0	180	LEFT	431.0	1
211.61083984375	0.2	RANDOM	0	0.730909378482465	0	0	0	NONE	434.0	1
212.98046875	0.2	RANDOM	0	0.763697001015316	0	0	0	NONE	438.0	1
214.46044921875	0.2	COHERENT	1	0.694513230956545	0	0	0	RIGHT	442.0	1
215.93017578125	0.2	COHERENT	1	0.70438407866277	0	0	180	LEFT	446.0	1
217.47998046875	0.2	RANDOM	0	0.569032547055031	0	0	0	NONE	449.0	1
218.77001953125	0.2	COHERENT	1	0.647963107623582	0	0	180	LEFT	453.0	1
220.06982421875	0.2	COHERENT	1	0.557844761285196	0	0	180	LEFT	457.0	1
221.33984375	0.2	COHERENT	1	0.704591746181904	0	0	0	RIGHT	461.0	1
222.76953125	0.2	RANDOM	0	0.574453937049839	0	0	0	NONE	465.0	1
224.10986328125	0.2	COHERENT	1	0.58940690397867	0	0	0	RIGHT	469.0	1
225.36962890625	0.2	COHERENT	1	0.603176648995031	0	0	0	RIGHT	473.0	1
226.83935546875	0.2	RANDOM	0	0.554927455215875	0	0	0	NONE	477.0	1
228.07958984375	0.2	COHERENT	1	0.633823907603073	0	0	0	RIGHT	481.0	1
229.4091796875	0.2	RANDOM	0	0.668702391919396	0	0	0	NONE	485.0	1
230.779296875	0.2	RANDOM	0	0.648426133750036	0	0	0	NONE	489.0	1
232.19921875	0.2	RANDOM	0	0.624245846951453	0	0	0	NONE	493.0	1
233.4287109375	0.2	COHERENT	1	0.727956455019012	0	0	0	RIGHT	497.0	1
234.7587890625	0.2	COHERENT	1	0.797911734060108	0	0	180	LEFT	501.0	1
236.31884765625	0.2	COHERENT	1	0.709707973587683	0	0	0	RIGHT	504.0	1
237.8486328125	0.2	RANDOM	0	0.474475609328692	0	0	0	NONE	507.0	1
238.99853515625	0.2	COHERENT	1	0.683422034730938	0	0	0	RIGHT	511.0	1
240.3984375	0.2	COHERENT	1	0.684134986302524	0	0	0	RIGHT	515.0	1
241.88818359375	0.2	RANDOM	0	0.659952586607687	0	0	0	NONE	519.0	1
243.4580078125	0.2	RANDOM	0	0.668976162907711	0	0	0	NONE	522.0	1
244.96826171875	0.2	COHERENT	1	0.599486324731515	0	0	0	RIGHT	525.0	1
246.43798828125	0.2	RANDOM	0	0.554427906167803	0	0	0	NONE	529.0	1
247.7880859375	0.2	COHERENT	1	0.529378011631707	0	0	180	LEFT	533.0	1
248.9775390625	0.2	RANDOM	0	0.498114692839408	0	0	0	NONE	537.0	1
288.27490234375	0.2	COHERENT	1	0.559723427914832	0	0	180	LEFT	539.0	1
289.65478515625	0.2	RANDOM	0	0.494919993672738	0	0	0	NONE	543.0	1
290.92431640625	0.2	RANDOM	0	0.544672664072095	0	0	0	NONE	547.0	1
292.29443359375	0.2	COHERENT	1	0.504482660365284	0	0	180	LEFT	551.0	1
293.4443359375	0.2	COHERENT	1	0.658338635696055	0	0	0	RIGHT	555.0	1
294.97412109375	0.2	COHERENT	1	0.604134394691755	0	0	0	RIGHT	558.0	1
296.4140625	0.2	COHERENT	1	0.724972743638318	0	0	0	RIGHT	562.0	1
297.76416015625	0.2	RANDOM	0	0.442915881373665	0	0	0	NONE	566.0	1
298.89404296875	0.2	COHERENT	1	0.66866194504837	0	0	0	RIGHT	570.0	1
300.24365234375	0.2	RANDOM	0	0.553470764156373	0	0	0	NONE	574.0	1
301.6435546875	0.2	RANDOM	0	0.489372433585231	0	0	0	NONE	578.0	1
302.853515625	0.2	COHERENT	1	0.708186084585577	0	0	0	RIGHT	582.0	1
304.4033203125	0.2	COHERENT	1	n/a	0	1	180	LEFT	585.0	0
305.80322265625	0.2	RANDOM	0	0.564836938739063	0	0	0	NONE	589.0	1
307.2333984375	0.2	RANDOM	0	0.624632205126545	0	0	0	NONE	593.0	1
308.68310546875	0.2	COHERENT	1	0.594431975002408	0	0	180	LEFT	597.0	1
310.0830078125	0.2	RANDOM	0	0.669091466676036	0	0	0	NONE	601.0	1
311.40283203125	0.2	COHERENT	1	0.578026240964391	0	0	180	LEFT	605.0	1
312.77294921875	0.2	COHERENT	1	0.719895755734797	0	0	0	RIGHT	609.0	1
314.22265625	0.2	RANDOM	0	0.584688504757651	0	0	0	NONE	613.0	1
315.71240234375	0.2	RANDOM	0	0.61956940381333	0	0	0	NONE	617.0	1
317.1123046875	0.2	COHERENT	1	0.594362249425103	0	0	180	LEFT	621.0	1
318.38232421875	0.2	RANDOM	0	0.673172374908063	0	0	0	NONE	625.0	1
319.7822265625	0.2	COHERENT	1	0.684937585043372	0	0	180	LEFT	629.0	1
321.06201171875	0.2	COHERENT	1	0.637908136100123	0	0	180	LEFT	633.0	1
322.43212890625	0.2	COHERENT	1	0.524687381904187	0	0	180	LEFT	637.0	1
323.7822265625	0.2	RANDOM	0	0.494472965190653	0	0	0	NONE	641.0	1
325.0517578125	0.2	COHERENT	1	0.584208575461162	0	0	0	RIGHT	645.0	1
n/a	0.2	RANDOM	0	0.619144711662557	1	0	0	NONE	n/a	1
327.70166015625	0.2	COHERENT	1	0.54807653996977	0	0	180	LEFT	649.0	1
329.1015625	0.2	RANDOM	0	0.549870388905219	0	0	0	NONE	653.0	1
330.521484375	0.2	RANDOM	0	0.775019106618856	0	0	0	NONE	657.0	1
331.92138671875	0.2	RANDOM	0	0.812421596456261	0	0	0	NONE	661.0	1
333.5712890625	0.2	COHERENT	1	0.614077684555014	0	0	180	LEFT	664.0	1
334.87109375	0.2	RANDOM	0	0.579681544273626	0	0	0	NONE	668.0	1
336.1611328125	0.2	RANDOM	0	0.58592454907739	0	0	0	NONE	672.0	1
337.49072265625	0.2	RANDOM	0	0.639441193267885	0	0	0	NONE	676.0	1
338.81103515625	0.2	COHERENT	1	0.513500501661838	0	0	180	LEFT	680.0	1
340.03076171875	0.2	RANDOM	0	0.538421509525506	0	0	0	NONE	684.0	1
341.28076171875	0.2	COHERENT	1	0.76817241716526	0	0	0	RIGHT	688.0	1
342.900390625	0.2	RANDOM	0	0.488950759857289	0	0	0	NONE	691.0	1
344.0302734375	0.2	RANDOM	0	0.607926439817675	0	0	0	NONE	695.0	1
345.26025390625	0.2	COHERENT	1	0.60370487306318	0	0	0	RIGHT	699.0	1
346.7001953125	0.2	RANDOM	0	0.604487248368969	0	0	0	NONE	703.0	1
348.1201171875	0.2	RANDOM	0	0.52438976537178	0	0	0	NONE	707.0	1
349.31982421875	0.2	COHERENT	1	0.553197898694634	0	0	0	RIGHT	711.0	1
350.5	0.2	COHERENT	1	0.662987309341588	0	0	0	RIGHT	715.0	1
351.93994140625	0.2	RANDOM	0	0.574915755807524	0	0	0	NONE	719.0	1
353.31982421875	0.2	COHERENT	1	n/a	0	1	180	LEFT	723.0	0
354.61962890625	0.2	COHERENT	1	0.793426055271084	0	0	0	RIGHT	727.0	1
356.08935546875	0.2	COHERENT	1	0.573403223917012	0	0	180	LEFT	731.0	1
357.26953125	0.2	RANDOM	0	0.658043132060811	0	0	0	NONE	735.0	1
358.529296875	0.2	RANDOM	0	0.687979853836623	0	0	0	NONE	739.0	1
359.8291015625	0.2	RANDOM	0	0.527780963891928	0	0	0	NONE	743.0	1
360.9892578125	0.2	RANDOM	0	0.66866617083997	0	0	0	NONE	747.0	1
362.39892578125	0.2	COHERENT	1	0.544496388155494	0	0	180	LEFT	751.0	1
363.7490234375	0.2	COHERENT	1	0.659359466439128	0	0	0	RIGHT	755.0	1
365.19873046875	0.2	RANDOM	0	0.599137998689002	0	0	0	NONE	759.0	1
366.5986328125	0.2	RANDOM	0	0.580066091394656	0	0	0	NONE	763.0	1
367.82861328125	0.2	COHERENT	1	0.657843010599208	0	0	180	LEFT	767.0	1
369.16845703125	0.2	COHERENT	1	0.662627211448125	0	0	180	LEFT	771.0	1
370.6884765625	0.2	COHERENT	1	0.609385545615623	0	0	0	RIGHT	774.0	1
372.01806640625	0.2	COHERENT	1	0.744236320807431	0	0	0	RIGHT	778.0	1
373.63818359375	0.2	RANDOM	0	0.465015267184754	0	0	0	NONE	781.0	1
374.91796875	0.2	RANDOM	0	0.584764267181527	0	0	0	NONE	785.0	1
376.18798828125	0.2	COHERENT	1	0.612722412517542	0	0	0	RIGHT	789.0	1
377.6376953125	0.2	COHERENT	1	0.609628226845416	0	0	0	RIGHT	793.0	1
378.85791015625	0.2	RANDOM	0	0.958388620785627	0	0	0	NONE	797.0	1
380.4375	0.2	RANDOM	0	0.583184726295258	0	0	0	NONE	800.0	1
381.87744140625	0.2	COHERENT	1	0.62032551883658	0	0	180	LEFT	804.0	1
383.24755859375	0.2	RANDOM	0	0.66888198810193	0	0	0	NONE	808.0	1
384.80712890625	0.2	RANDOM	0	0.639636485251685	0	0	0	NONE	811.0	1
386.17724609375	0.2	COHERENT	1	0.734446366845077	0	0	180	LEFT	815.0	1
387.56689453125	0.2	COHERENT	1	0.578017487537181	0	0	180	LEFT	819.0	1
388.76708984375	0.2	RANDOM	0	0.772877535325279	0	0	0	NONE	823.0	1
390.296875	0.2	COHERENT	1	0.729960084370759	0	0	180	LEFT	826.0	1
391.73681640625	0.2	RANDOM	0	0.577847852150626	0	0	0	NONE	830.0	1
393.08642578125	0.2	RANDOM	0	0.654494371848159	0	0	0	NONE	834.0	1
394.63671875	0.2	COHERENT	1	0.609385847458725	0	0	0	RIGHT	837.0	1
396.0166015625	0.2	RANDOM	0	0.844146734005335	0	0	0	NONE	841.0	1
397.736328125	0.2	RANDOM	0	1.13478436988044	0	0	0	NONE	844.0	1
399.576171875	0.2	RANDOM	0	0.628466810021564	0	0	0	NONE	846.0	1
400.97607421875	0.2	COHERENT	1	0.574355536452458	0	0	0	RIGHT	850.0	1
402.42578125	0.2	RANDOM	0	0.674383668156224	0	0	0	NONE	854.0	1
403.9755859375	0.2	RANDOM	0	0.614054442697125	0	0	0	NONE	857.0	1
405.36572265625	0.2	RANDOM	0	0.655319306921228	0	0	0	NONE	861.0	1
406.82568359375	0.2	RANDOM	0	1.04973938933654	0	0	0	NONE	865.0	1
408.54541015625	0.2	COHERENT	1	0.493276462215363	0	0	180	LEFT	867.0	1
409.84521484375	0.2	COHERENT	1	0.500046181875405	0	0	0	RIGHT	871.0	1
411.21533203125	0.2	RANDOM	0	0.573380887585699	0	0	0	NONE	875.0	1
412.6953125	0.2	RANDOM	0	0.578935691889455	0	0	0	NONE	879.0	1
414.115234375	0.2	COHERENT	1	0.569898834526612	0	0	0	RIGHT	883.0	1
415.56494140625	0.2	COHERENT	1	0.594664997277505	0	0	0	RIGHT	887.0	1
416.93505859375	0.2	COHERENT	1	0.51457687139191	0	0	180	LEFT	891.0	1
418.134765625	0.2	COHERENT	1	0.703401581895378	0	0	180	LEFT	895.0	1
419.6044921875	0.2	COHERENT	1	0.754067023484822	0	0	180	LEFT	899.0	1
421.154296875	0.2	COHERENT	1	0.519994941122604	0	0	180	LEFT	902.0	1
422.474609375	0.2	RANDOM	0	0.470857727224029	0	0	0	NONE	906.0	1
423.72412109375	0.2	RANDOM	0	0.514638749068581	0	0	0	NONE	910.0	1
425.0244140625	0.2	RANDOM	0	0.52462912633564	0	0	0	NONE	914.0	1
426.244140625	0.2	RANDOM	0	0.51819445165529	0	0	0	NONE	918.0	1
427.3642578125	0.2	RANDOM	0	0.648131233799177	0	0	0	NONE	922.0	1
428.89404296875	0.2	RANDOM	0	0.564938357760184	0	0	0	NONE	925.0	1
430.09375	0.2	RANDOM	0	0.587839738628645	0	0	0	NONE	929.0	1
431.4638671875	0.2	COHERENT	1	0.534699491818174	0	0	0	RIGHT	933.0	1
432.83349609375	0.2	COHERENT	1	0.54444296206384	0	0	0	RIGHT	937.0	1
433.96337890625	0.2	RANDOM	0	0.56840260212266	0	0	0	NONE	941.0	1
435.25341796875	0.2	COHERENT	1	0.778153135477623	0	0	180	LEFT	945.0	1
436.71337890625	0.2	COHERENT	1	0.537979008677212	0	0	180	LEFT	949.0	1
438.0732421875	0.2	COHERENT	1	0.549718260373993	0	0	180	LEFT	953.0	1
439.38330078125	0.2	RANDOM	0	0.514408745217224	0	0	0	NONE	957.0	1
440.72314453125	0.2	RANDOM	0	0.724673014209657	0	0	0	NONE	961.0	1
442.1728515625	0.2	RANDOM	0	0.534177002754404	0	0	0	NONE	965.0	1
443.49267578125	0.2	COHERENT	1	0.464121210218764	0	0	0	RIGHT	969.0	1
444.72265625	0.2	COHERENT	1	0.604960537134502	0	0	0	RIGHT	973.0	1
446.22265625	0.2	COHERENT	1	0.549580620273446	0	0	0	RIGHT	977.0	1
447.42236328125	0.2	COHERENT	1	0.568631398604339	0	0	180	LEFT	981.0	1
448.63232421875	0.2	RANDOM	0	0.593399070567102	0	0	0	NONE	985.0	1
449.88232421875	0.2	RANDOM	0	n/a	0	1	0	NONE	989.0	0
451.8623046875	0.2	COHERENT	1	0.569711994127829	0	0	0	RIGHT	990.0	1
453.2119140625	0.2	RANDOM	0	0.914458186990487	0	0	0	NONE	994.0	1
454.95166015625	0.2	COHERENT	1	0.644631070199466	0	0	180	LEFT	997.0	1
456.20166015625	0.2	COHERENT	1	0.628299589373455	0	0	0	RIGHT	1001.0	1
457.48193359375	0.2	COHERENT	1	0.45838620604718	0	0	0	RIGHT	1005.0	1
458.62158203125	0.2	COHERENT	1	0.532931601322161	0	0	0	RIGHT	1009.0	1
459.8515625	0.2	COHERENT	1	0.73799965469243	0	0	0	RIGHT	1013.0	1
461.3916015625	0.2	RANDOM	0	0.539850732933701	0	0	0	NONE	1016.0	1
462.60107421875	0.2	RANDOM	0	0.593637224161284	0	0	0	NONE	1020.0	1
463.97119140625	0.2	COHERENT	1	0.844411147882056	0	0	0	RIGHT	1024.0	1
465.6708984375	0.2	RANDOM	0	0.56921304876505	0	0	0	NONE	1027.0	1
466.9912109375	0.2	COHERENT	1	0.628972395915298	0	0	180	LEFT	1031.0	1
468.291015625	0.2	COHERENT	1	0.542897227517642	0	0	180	LEFT	1035.0	1
469.61083984375	0.2	COHERENT	1	0.584707218981748	0	0	180	LEFT	1039.0	1
470.890625	0.2	RANDOM	0	0.618642747875128	0	0	0	NONE	1043.0	1
472.20068359375	0.2	COHERENT	1	0.763545778010666	0	0	0	RIGHT	1047.0	1
473.63037109375	0.2	RANDOM	0	0.673074879836349	0	0	0	NONE	1051.0	1
475.16015625	0.2	COHERENT	1	0.617774649349485	0	0	0	RIGHT	1054.0	1
476.4501953125	0.2	RANDOM	0	0.643733994810646	0	0	0	NONE	1058.0	1
n/a	0.2	RANDOM	0	0.983642862575834	1	0	0	NONE	n/a	1
479.64990234375	0.2	COHERENT	1	0.489180160025171	0	0	0	RIGHT	1061.0	1
481.02001953125	0.2	RANDOM	0	0.574239930841941	0	0	0	NONE	1065.0	1
482.349609375	0.2	COHERENT	1	0.509178421413708	0	0	0	RIGHT	1069.0	1
483.73974609375	0.2	COHERENT	1	0.554939830751209	0	0	180	LEFT	1073.0	1
485.1396484375	0.2	RANDOM	0	0.59870606232198	0	0	0	NONE	1077.0	1
486.36962890625	0.2	COHERENT	1	0.53265390638353	0	0	180	LEFT	1081.0	1
487.71923828125	0.2	COHERENT	1	0.514172402677104	0	0	180	LEFT	1085.0	1
488.939453125	0.2	RANDOM	0	0.578331101712138	0	0	0	NONE	1089.0	1
490.13916015625	0.2	RANDOM	0	0.803037620419673	0	0	0	NONE	1093.0	1
491.67919921875	0.2	COHERENT	1	0.854873304702778	0	0	180	LEFT	1096.0	1
493.27880859375	0.2	RANDOM	0	0.599662298806834	0	0	0	NONE	1099.0	1
603.400390625	0.2	COHERENT	1	0.599231871651682	0	0	0	RIGHT	1101.0	1
604.8603515625	0.2	RANDOM	0	0.534359617360678	0	0	0	NONE	1105.0	1
606.150390625	0.2	RANDOM	0	0.998782368061256	0	0	0	NONE	1109.0	1
607.75	0.2	RANDOM	0	0.518995843027369	0	0	0	NONE	1111.0	1
609.14990234375	0.2	COHERENT	1	0.574751251740054	0	0	0	RIGHT	1115.0	1
610.60009765625	0.2	COHERENT	1	0.544633424570748	0	0	180	LEFT	1119.0	1
611.919921875	0.2	RANDOM	0	0.524393689322096	0	0	0	NONE	1123.0	1
613.18994140625	0.2	RANDOM	0	0.809336767895729	0	0	0	NONE	1127.0	1
614.70947265625	0.2	COHERENT	1	0.528145589419182	0	0	0	RIGHT	1130.0	1
615.8193359375	0.2	COHERENT	1	0.497947170348198	0	0	0	RIGHT	1134.0	1
616.96923828125	0.2	RANDOM	0	0.818699916811966	0	0	0	NONE	1138.0	1
618.689453125	0.2	COHERENT	1	0.579619968439147	0	0	0	RIGHT	1141.0	1
620.12939453125	0.2	RANDOM	0	0.589432560576824	0	0	0	NONE	1145.0	1
621.5390625	0.2	RANDOM	0	0.554216314698351	0	0	0	NONE	1149.0	1
622.798828125	0.2	RANDOM	0	0.667993967983421	0	0	0	NONE	1153.0	1
624.208984375	0.2	COHERENT	1	0.419940247293198	0	0	180	LEFT	1157.0	1
625.37890625	0.2	COHERENT	1	0.52072841797235	0	0	180	LEFT	1161.0	1
626.6787109375	0.2	COHERENT	1	0.70449123268736	0	0	180	LEFT	1165.0	1
628.16845703125	0.2	COHERENT	1	0.784384368430437	0	0	0	RIGHT	1169.0	1
629.5986328125	0.2	RANDOM	0	0.65817352794511	0	0	0	NONE	1173.0	1
631.09814453125	0.2	COHERENT	1	0.688843424727565	0	0	180	LEFT	1177.0	1
632.46826171875	0.2	RANDOM	0	0.583765470928483	0	0	0	NONE	1181.0	1
633.73828125	0.2	RANDOM	0	0.683385209968037	0	0	0	NONE	1185.0	1
635.01806640625	0.2	COHERENT	1	0.538453202969322	0	0	180	LEFT	1189.0	1
636.4580078125	0.2	RANDOM	0	0.589420788725874	0	0	0	NONE	1193.0	1
637.78759765625	0.2	COHERENT	1	0.538934037793297	0	0	0	RIGHT	1197.0	1
639.23779296875	0.2	COHERENT	1	0.629925312135128	0	0	180	LEFT	1201.0	1
640.73779296875	0.2	RANDOM	0	0.594821653444342	0	0	0	NONE	1205.0	1
642.24755859375	0.2	COHERENT	1	0.609641206065135	0	0	180	LEFT	1208.0	1
643.4775390625	0.2	COHERENT	1	0.543397682092291	0	0	0	RIGHT	1212.0	1
644.697265625	0.2	RANDOM	0	0.713199081916173	0	0	0	NONE	1216.0	1
646.01708984375	0.2	COHERENT	1	0.538131740893732	0	0	0	RIGHT	1220.0	1
647.447265625	0.2	RANDOM	0	0.649635615945954	0	0	0	NONE	1224.0	1
648.84716796875	0.2	RANDOM	0	0.619673841257281	0	0	0	NONE	1228.0	1
650.19677734375	0.2	RANDOM	0	0.614616171263151	0	0	0	NONE	1232.0	1
651.43701171875	0.2	COHERENT	1	0.563285167348113	0	0	0	RIGHT	1236.0	1
652.716796875	0.2	RANDOM	0	1.14393049416412	0	0	0	NONE	1240.0	1
654.71630859375	0.2	COHERENT	1	0.559960374140246	0	0	0	RIGHT	1242.0	1
656.15625	0.2	RANDOM	0	0.713710704656478	0	0	0	NONE	1246.0	1
657.46630859375	0.2	COHERENT	1	0.558609931578758	0	0	0	RIGHT	1250.0	1
658.72607421875	0.2	COHERENT	1	0.768397591539724	0	0	0	RIGHT	1254.0	1
660.38623046875	0.2	COHERENT	1	0.519191436854271	0	0	180	LEFT	1257.0	1
661.52587890625	0.2	COHERENT	1	0.587838833102069	0	0	180	LEFT	1261.0	1
662.92578125	0.2	COHERENT	1	1.08488470226803	0	0	0	RIGHT	1265.0	1
664.8056640625	0.2	RANDOM	0	0.569151171088379	0	0	0	NONE	1267.0	1
666.275390625	0.2	RANDOM	0	0.72942733266791	0	0	0	NONE	1271.0	1
667.71533203125	0.2	RANDOM	0	0.648371802131805	0	0	0	NONE	1275.0	1
669.1455078125	0.2	COHERENT	1	0.603895939254471	0	0	180	LEFT	1279.0	1
670.6455078125	0.2	COHERENT	1	0.509902239307849	0	0	180	LEFT	1283.0	1
671.79541015625	0.2	RANDOM	0	0.667701784612291	0	0	0	NONE	1287.0	1
673.1953125	0.2	COHERENT	1	0.834628739977234	0	0	180	LEFT	1291.0	1
674.8349609375	0.2	COHERENT	1	0.509410538160409	0	0	0	RIGHT	1294.0	1
675.96484375	0.2	COHERENT	1	0.493052495209668	0	0	0	RIGHT	1298.0	1
677.06494140625	0.2	COHERENT	1	0.588115320671022	0	0	180	LEFT	1302.0	1
678.28466796875	0.2	COHERENT	1	0.492938096968828	0	0	180	LEFT	1306.0	1
679.50439453125	0.2	COHERENT	1	0.594889567967584	0	0	180	LEFT	1310.0	1
680.984375	0.2	RANDOM	0	0.519625486117548	0	0	0	NONE	1314.0	1
682.24462890625	0.2	RANDOM	0	0.674410833966249	0	0	0	NONE	1318.0	1
683.744140625	0.2	RANDOM	0	0.544226541116586	0	0	0	NONE	1322.0	1
684.9541015625	0.2	COHERENT	1	0.462714624984983	0	0	0	RIGHT	1326.0	1
686.1240234375	0.2	COHERENT	1	0.457945516252948	0	0	180	LEFT	1330.0	1
687.32421875	0.2	RANDOM	0	0.650716513310726	0	0	0	NONE	1334.0	1
688.7138671875	0.2	COHERENT	1	0.514619129317907	0	0	180	LEFT	1338.0	1
690.0439453125	0.2	RANDOM	0	0.554415530632468	0	0	0	NONE	1342.0	1
691.43359375	0.2	RANDOM	0	n/a	0	1	0	NONE	1346.0	0
692.83349609375	0.2	COHERENT	1	0.625120284166769	0	0	0	RIGHT	1350.0	1
694.20361328125	0.2	RANDOM	0	0.61990414695174	0	0	0	NONE	1354.0	1
695.66357421875	0.2	COHERENT	1	0.53967445701619	0	0	180	LEFT	1358.0	1
696.83349609375	0.2	COHERENT	1	0.633465318920571	0	0	0	RIGHT	1362.0	1
698.203125	0.2	RANDOM	0	0.674383366314942	0	0	0	NONE	1366.0	1
699.47314453125	0.2	RANDOM	0	0.577948063802069	0	0	0	NONE	1370.0	1
700.72314453125	0.2	COHERENT	1	0.572848437725042	0	0	180	LEFT	1374.0	1
702.1728515625	0.2	COHERENT	1	0.524917989440837	0	0	0	RIGHT	1378.0	1
703.52294921875	0.2	RANDOM	0	0.554684170301698	0	0	0	NONE	1382.0	1
704.82275390625	0.2	RANDOM	0	0.679473937122566	0	0	0	NONE	1386.0	1
706.21240234375	0.2	COHERENT	1	0.548252212201987	0	0	180	LEFT	1390.0	1
707.3623046875	0.2	COHERENT	1	0.568203084345441	0	0	0	RIGHT	1394.0	1
708.66259765625	0.2	COHERENT	1	0.694963579705473	0	0	0	RIGHT	1398.0	1
709.982421875	0.2	COHERENT	1	0.552929259025404	0	0	180	LEFT	1402.0	1
711.162109375	0.2	COHERENT	1	0.742705980221217	0	0	0	RIGHT	1406.0	1
712.73193359375	0.2	RANDOM	0	0.604460384402955	0	0	0	NONE	1409.0	1
714.1318359375	0.2	RANDOM	0	0.709373230449273	0	0	0	NONE	1413.0	1
715.56201171875	0.2	COHERENT	1	0.584160582531695	0	0	0	RIGHT	1417.0	1
716.8017578125	0.2	RANDOM	0	0.567977909970978	0	0	0	NONE	1421.0	1
718.021484375	0.2	COHERENT	1	0.68788386797587	0	0	180	LEFT	1425.0	1
719.5517578125	0.2	COHERENT	1	0.439404247766106	0	0	180	LEFT	1428.0	1
720.6015625	0.2	RANDOM	0	0.84842263237897	0	0	0	NONE	1432.0	1
722.1513671875	0.2	RANDOM	0	0.678223404371238	0	0	0	NONE	1435.0	1
723.7412109375	0.2	RANDOM	0	0.619061705023341	0	0	0	NONE	1438.0	1
725.12109375	0.2	RANDOM	0	0.584923639928093	0	0	0	NONE	1442.0	1
726.51123046875	0.2	COHERENT	1	0.60953193914429	0	0	0	RIGHT	1446.0	1
727.99072265625	0.2	COHERENT	1	0.464643095598149	0	0	180	LEFT	1450.0	1
729.2109375	0.2	COHERENT	1	0.689425074887367	0	0	180	LEFT	1454.0	1
730.640625	0.2	RANDOM	0	0.829176562064276	0	0	0	NONE	1458.0	1
732.21044921875	0.2	COHERENT	1	0.634953703423889	0	0	0	RIGHT	1461.0	1
733.71044921875	0.2	COHERENT	1	0.584876552526111	0	0	0	RIGHT	1465.0	1
734.98046875	0.2	COHERENT	1	0.563642246817835	0	0	0	RIGHT	1469.0	1
736.26025390625	0.2	RANDOM	0	0.70443991949287	0	0	0	NONE	1473.0	1
737.72021484375	0.2	RANDOM	0	0.889310797382677	0	0	0	NONE	1477.0	1
739.27001953125	0.2	RANDOM	0	0.787710972693276	0	0	0	NONE	1480.0	1
740.81982421875	0.2	COHERENT	1	0.575020193251476	0	0	0	RIGHT	1483.0	1
742.099609375	0.2	COHERENT	1	0.577690592298495	0	0	180	LEFT	1487.0	1
743.2998046875	0.2	RANDOM	0	0.823478080813402	0	0	0	NONE	1491.0	1
744.7197265625	0.2	COHERENT	1	0.558424902233128	0	0	180	LEFT	1495.0	1
745.9697265625	0.2	COHERENT	1	0.713189121120195	0	0	0	RIGHT	1499.0	1
747.3193359375	0.2	RANDOM	0	0.588014203493003	0	0	0	NONE	1503.0	1
748.689453125	0.2	COHERENT	1	0.57495620267855	0	0	0	RIGHT	1507.0	1
749.93896484375	0.2	COHERENT	1	0.572659484429096	0	0	0	RIGHT	1511.0	1
751.22900390625	0.2	COHERENT	1	0.678357422362751	0	0	180	LEFT	1515.0	1
752.64892578125	0.2	RANDOM	0	0.509350773379992	0	0	0	NONE	1519.0	1
753.87890625	0.2	COHERENT	1	0.514087584983827	0	0	180	LEFT	1523.0	1
755.1787109375	0.2	COHERENT	1	0.504092378239875	0	0	180	LEFT	1527.0	1
756.4287109375	0.2	COHERENT	1	0.589807146901876	0	0	180	LEFT	1531.0	1
757.91845703125	0.2	RANDOM	0	0.509656841497417	0	0	0	NONE	1535.0	1
759.0986328125	0.2	RANDOM	0	0.853479396846524	0	0	0	NONE	1539.0	1
760.83837890625	0.2	RANDOM	0	0.55435274742922	0	0	0	NONE	1542.0	1
762.13818359375	0.2	RANDOM	0	0.549166794447046	0	0	0	NONE	1546.0	1
763.33837890625	0.2	RANDOM	0	0.457960608368921	0	0	0	NONE	1550.0	1
764.6181640625	0.2	COHERENT	1	0.624828402638741	0	0	180	LEFT	1554.0	1
766.15771484375	0.2	COHERENT	1	0.758645066024656	0	0	180	LEFT	1557.0	1
767.7080078125	0.2	RANDOM	0	0.589417166618659	0	0	0	NONE	1560.0	1
768.9775390625	0.2	RANDOM	0	0.64333526109931	0	0	0	NONE	1564.0	1
770.28759765625	0.2	RANDOM	0	0.59311835720564	0	0	0	NONE	1568.0	1
771.50732421875	0.2	COHERENT	1	0.473053630136747	0	0	0	RIGHT	1572.0	1
772.607421875	0.2	RANDOM	0	0.612869409728773	0	0	0	NONE	1576.0	1
773.92724609375	0.2	RANDOM	0	0.547646414655901	0	0	0	NONE	1580.0	1
775.29736328125	0.2	RANDOM	0	0.554443601969069	0	0	0	NONE	1584.0	1
776.47705078125	0.2	RANDOM	0	0.693609213193668	0	0	0	NONE	1588.0	1
778.02685546875	0.2	RANDOM	0	0.589142490101949	0	0	0	NONE	1591.0	1
779.466796875	0.2	RANDOM	0	0.549932870266275	0	0	0	NONE	1595.0	1
780.88671875	0.2	RANDOM	0	0.505326007821168	0	0	0	NONE	1599.0	1
782.0966796875	0.2	COHERENT	1	0.637639194587791	0	0	0	RIGHT	1603.0	1
783.5966796875	0.2	COHERENT	1	0.425409630219292	0	0	180	LEFT	1607.0	1
784.78662109375	0.2	COHERENT	1	0.429715410982681	0	0	0	RIGHT	1611.0	1
785.986328125	0.2	RANDOM	0	0.563003850301357	0	0	0	NONE	1615.0	1
787.30615234375	0.2	COHERENT	1	0.72967544705898	0	0	0	RIGHT	1619.0	1
788.68603515625	0.2	RANDOM	0	0.638710131156586	0	0	0	NONE	1623.0	1
790.10595703125	0.2	RANDOM	0	0.56460904778487	0	0	0	NONE	1627.0	1
791.55615234375	0.2	RANDOM	0	0.519384314099625	0	0	0	NONE	1631.0	1
792.8056640625	0.2	RANDOM	0	0.564193712744782	0	0	0	NONE	1635.0	1
794.095703125	0.2	RANDOM	0	0.594851535834096	0	0	0	NONE	1639.0	1
795.32568359375	0.2	RANDOM	0	0.722928063729341	0	0	0	NONE	1643.0	1
796.94580078125	0.2	COHERENT	1	0.509670424402429	0	0	180	LEFT	1646.0	1
798.365234375	0.2	COHERENT	1	0.439438355950188	0	0	180	LEFT	1650.0	1
799.4951171875	0.2	COHERENT	1	0.728357301626602	0	0	0	RIGHT	1654.0	1
801.13525390625	0.2	RANDOM	0	0.579181995225554	0	0	0	NONE	1657.0	1
802.39501953125	0.2	COHERENT	1	0.51796233490677	0	0	180	LEFT	1661.0	1
803.64501953125	0.2	RANDOM	0	0.55484897621136	0	0	0	NONE	1665.0	1
805.03515625	0.2	RANDOM	0	0.674616992273513	0	0	0	NONE	1669.0	1
806.5546875	0.2	RANDOM	0	0.729180727488711	0	0	0	NONE	1672.0	1
852.021484375	0.2	RANDOM	0	n/a	0	1	0	NONE	1674.0	0
854.12109375	0.2	COHERENT	1	0.55903160530579	0	0	180	LEFT	1675.0	1
855.56103515625	0.2	COHERENT	1	0.46543452617334	0	0	180	LEFT	1679.0	1
856.64111328125	0.2	COHERENT	1	0.453979006262671	0	0	180	LEFT	1683.0	1
857.9208984375	0.2	RANDOM	0	0.484884340057761	0	0	0	NONE	1687.0	1
859.24072265625	0.2	COHERENT	1	0.533721522685482	0	0	0	RIGHT	1691.0	1
860.54052734375	0.2	RANDOM	0	0.454593859078159	0	0	0	NONE	1695.0	1
861.6806640625	0.2	COHERENT	1	0.603390957045121	0	0	0	RIGHT	1699.0	1
862.91064453125	0.2	COHERENT	1	0.423017831636571	0	0	0	RIGHT	1703.0	1
863.98046875	0.2	COHERENT	1	0.478723436366636	0	0	0	RIGHT	1707.0	1
865.13037109375	0.2	RANDOM	0	0.573024411800361	0	0	0	NONE	1711.0	1
866.56005859375	0.2	COHERENT	1	0.519444078880042	0	0	180	LEFT	1715.0	1
867.72998046875	0.2	RANDOM	0	0.768504745565224	0	0	0	NONE	1719.0	1
n/a	0.2	COHERENT	1	0.623438116889702	1	0	180	LEFT	n/a	1
870.3701171875	0.2	COHERENT	1	0.513356221031245	0	0	0	RIGHT	1723.0	1
871.56982421875	0.2	RANDOM	0	0.613149217563659	0	0	0	NONE	1727.0	1
872.83984375	0.2	COHERENT	1	0.587945081600083	0	0	0	RIGHT	1731.0	1
874.08984375	0.2	RANDOM	0	0.60269641785635	0	0	0	NONE	1735.0	1
875.5595703125	0.2	RANDOM	0	0.869611661738418	0	0	0	NONE	1739.0	1
877.3193359375	0.2	RANDOM	0	0.549395289086533	0	0	0	NONE	1742.0	1
878.46923828125	0.2	RANDOM	0	0.63818522735437	0	0	0	NONE	1746.0	1
879.7890625	0.2	RANDOM	0	0.572970382023414	0	0	0	NONE	1750.0	1
881.22900390625	0.2	COHERENT	1	0.504881092234427	0	0	0	RIGHT	1754.0	1
882.59912109375	0.2	RANDOM	0	0.639639201832324	0	0	0	NONE	1758.0	1
883.87890625	0.2	RANDOM	0	0.538458334289317	0	0	0	NONE	1762.0	1
885.19873046875	0.2	COHERENT	1	0.554408588259321	0	0	0	RIGHT	1766.0	1
886.3984375	0.2	RANDOM	0	0.608181798424994	0	0	0	NONE	1770.0	1
887.86865234375	0.2	RANDOM	0	0.588925767313413	0	0	0	NONE	1774.0	1
889.24853515625	0.2	COHERENT	1	0.589862384046683	0	0	180	LEFT	1778.0	1
890.46826171875	0.2	COHERENT	1	0.563674543946036	0	0	0	RIGHT	1782.0	1
891.6884765625	0.2	RANDOM	0	0.598409049474867	0	0	0	NONE	1786.0	1
892.89794921875	0.2	RANDOM	0	0.793225631967289	0	0	0	NONE	1790.0	1
894.5078125	0.2	COHERENT	1	0.599135282107454	0	0	180	LEFT	1793.0	1
895.80810546875	0.2	COHERENT	1	0.628921082720808	0	0	180	LEFT	1797.0	1
897.2578125	0.2	COHERENT	1	0.584881683845197	0	0	0	RIGHT	1801.0	1
898.65771484375	0.2	COHERENT	1	0.504630864947103	0	0	180	LEFT	1805.0	1
899.83740234375	0.2	COHERENT	1	0.593531579347655	0	0	0	RIGHT	1809.0	1
901.25732421875	0.2	COHERENT	1	0.604374963023474	0	0	180	LEFT	1813.0	1
902.49755859375	0.2	RANDOM	0	0.603138315019351	0	0	0	NONE	1817.0	1
903.8974609375	0.2	RANDOM	0	0.669919118330654	0	0	0	NONE	1821.0	1
905.34716796875	0.2	COHERENT	1	0.524700662967007	0	0	0	RIGHT	1825.0	1
906.697265625	0.2	RANDOM	0	0.564588522505801	0	0	0	NONE	1829.0	1
908.01708984375	0.2	COHERENT	1	0.559392306884547	0	0	180	LEFT	1833.0	1
909.39697265625	0.2	RANDOM	0	0.57428671640173	0	0	0	NONE	1837.0	1
910.86669921875	0.2	COHERENT	1	0.48907421336844	0	0	180	LEFT	1841.0	1
912.03662109375	0.2	RANDOM	0	0.692854909224479	0	0	0	NONE	1845.0	1
913.466796875	0.2	COHERENT	1	0.539431775786397	0	0	0	RIGHT	1849.0	1
914.86669921875	0.2	RANDOM	0	0.539504821629635	0	0	0	NONE	1853.0	1
916.1865234375	0.2	RANDOM	0	0.674359520770849	0	0	0	NONE	1857.0	1
917.5361328125	0.2	COHERENT	1	0.513213147768511	0	0	0	RIGHT	1861.0	1
918.88623046875	0.2	RANDOM	0	0.54998508898916	0	0	0	NONE	1865.0	1
920.22607421875	0.2	COHERENT	1	0.504900711986011	0	0	0	RIGHT	1869.0	1
921.505859375	0.2	RANDOM	0	0.504432856382664	0	0	0	NONE	1873.0	1
922.60595703125	0.2	RANDOM	0	0.628511482686008	0	0	0	NONE	1877.0	1
923.845703125	0.2	RANDOM	0	0.668262003967357	0	0	0	NONE	1881.0	1
925.35546875	0.2	RANDOM	0	0.549234407127187	0	0	0	NONE	1884.0	1
926.66552734375	0.2	RANDOM	0	0.64901985760298	0	0	0	NONE	1888.0	1
928.025390625	0.2	COHERENT	1	0.514846718430817	0	0	180	LEFT	1892.0	1
929.1455078125	0.2	COHERENT	1	0.557697764072145	0	0	0	RIGHT	1896.0	1
930.3955078125	0.2	COHERENT	1	0.478629563403047	0	0	180	LEFT	1900.0	1
931.5849609375	0.2	COHERENT	1	0.508401177427004	0	0	0	RIGHT	1904.0	1
932.9453125	0.2	COHERENT	1	0.549183697616172	0	0	0	RIGHT	1908.0	1
934.10498046875	0.2	RANDOM	0	0.557968516638539	0	0	0	NONE	1912.0	1
935.3349609375	0.2	COHERENT	1	0.722904218186159	0	0	0	RIGHT	1916.0	1
936.7548828125	0.2	RANDOM	0	0.568678787849421	0	0	0	NONE	1920.0	1
938.1044921875	0.2	COHERENT	1	0.584596442848124	0	0	0	RIGHT	1924.0	1
939.4345703125	0.2	RANDOM	0	0.609415126164095	0	0	0	NONE	1928.0	1
940.67431640625	0.2	COHERENT	1	0.563172278317325	0	0	0	RIGHT	1932.0	1
941.95458984375	0.2	COHERENT	1	0.574080256252273	0	0	180	LEFT	1936.0	1
943.244140625	0.2	COHERENT	1	0.627896931711803	0	0	0	RIGHT	1940.0	1
944.59423828125	0.2	COHERENT	1	0.484456025798863	0	0	180	LEFT	1944.0	1
945.77392578125	0.2	RANDOM	0	0.518602240636028	0	0	0	NONE	1948.0	1
946.994140625	0.2	COHERENT	1	0.72841434982638	0	0	180	LEFT	1952.0	1
948.34375	0.2	RANDOM	0	0.623212640673955	0	0	0	NONE	1956.0	1
949.68359375	0.2	RANDOM	0	0.837982208205176	0	0	0	NONE	1960.0	1
951.33349609375	0.2	COHERENT	1	0.494897053657041	0	0	0	RIGHT	1963.0	1
952.68359375	0.2	COHERENT	1	0.558784396442206	0	0	0	RIGHT	1967.0	1
954.00341796875	0.2	COHERENT	1	0.519578096872465	0	0	180	LEFT	1971.0	1
955.33349609375	0.2	RANDOM	0	0.643386876136901	0	0	0	NONE	1975.0	1
956.75341796875	0.2	RANDOM	0	0.824031659637512	0	0	0	NONE	1979.0	1
958.453125	0.2	COHERENT	1	0.575542682316154	0	0	180	LEFT	1982.0	1
959.6328125	0.2	COHERENT	1	0.597861507497328	0	0	0	RIGHT	1986.0	1
960.98291015625	0.2	RANDOM	0	0.82957197550968	0	0	0	NONE	1990.0	1
962.40283203125	0.2	COHERENT	1	0.768416909448206	0	0	0	RIGHT	1994.0	1
964.04248046875	0.2	RANDOM	0	0.589174183546675	0	0	0	NONE	1997.0	1
965.37255859375	0.2	COHERENT	1	0.548869479756831	0	0	180	LEFT	2001.0	1
966.74267578125	0.2	RANDOM	0	0.634938309465724	0	0	0	NONE	2005.0	1
968.12255859375	0.2	COHERENT	1	0.519689778531756	0	0	0	RIGHT	2009.0	1
969.322265625	0.2	RANDOM	0	0.603476680265885	0	0	0	NONE	2013.0	1
970.71240234375	0.2	RANDOM	0	0.624404616013635	0	0	0	NONE	2017.0	1
971.9619140625	0.2	RANDOM	0	0.613180005481809	0	0	0	NONE	2021.0	1
973.412109375	0.2	RANDOM	0	0.529106051697454	0	0	0	NONE	2025.0	1
974.70166015625	0.2	RANDOM	0	0.799877029437084	0	0	0	NONE	2029.0	1
976.3515625	0.2	RANDOM	0	0.559648872860635	0	0	0	NONE	2032.0	1
977.53173828125	0.2	COHERENT	1	0.533451373805292	0	0	180	LEFT	2036.0	1
978.8515625	0.2	RANDOM	0	0.584413224557466	0	0	0	NONE	2040.0	1
980.05126953125	0.2	RANDOM	0	0.583140355473915	0	0	0	NONE	2044.0	1
981.271484375	0.2	COHERENT	1	0.602993128861272	0	0	180	LEFT	2048.0	1
982.72119140625	0.2	RANDOM	0	0.519866054449267	0	0	0	NONE	2052.0	1
984.14111328125	0.2	RANDOM	0	0.569646192500841	0	0	0	NONE	2056.0	1
985.36083984375	0.2	RANDOM	0	0.64844575350071	0	0	0	NONE	2060.0	1
986.74072265625	0.2	COHERENT	1	0.524370145620196	0	0	180	LEFT	2064.0	1
987.890625	0.2	COHERENT	1	0.533179715712322	0	0	180	LEFT	2068.0	1
989.33056640625	0.2	RANDOM	0	0.609934596805033	0	0	0	NONE	2072.0	1
990.6806640625	0.2	RANDOM	0	0.559706524744797	0	0	0	NONE	2076.0	1
992.140625	0.2	COHERENT	1	0.599673165130298	0	0	0	RIGHT	2080.0	1
993.3603515625	0.2	COHERENT	1	0.543571241429163	0	0	180	LEFT	2084.0	1
994.73046875	0.2	RANDOM	0	0.554393194300246	0	0	0	NONE	2088.0	1
996.2001953125	0.2	COHERENT	1	0.649036760773015	0	0	0	RIGHT	2092.0	1
997.6298828125	0.2	COHERENT	1	0.54006353177283	0	0	180	LEFT	2096.0	1
998.85009765625	0.2	RANDOM	0	0.552798561298914	0	0	0	NONE	2100.0	1
1000.1298828125	0.2	COHERENT	1	0.52448816597007	0	0	0	RIGHT	2104.0	1
1001.44970703125	0.2	RANDOM	0	0.579437353832873	0	0	0	NONE	2108.0	1
1002.91943359375	0.2	RANDOM	0	0.564163226670644	0	0	0	NONE	2112.0	1
1004.349609375	0.2	COHERENT	1	0.434019078848905	0	0	180	LEFT	2116.0	1
1005.4892578125	0.2	COHERENT	1	0.437892017719605	0	0	0	RIGHT	2120.0	1
1006.5595703125	0.2	RANDOM	0	0.553640399542928	0	0	0	NONE	2124.0	1
1007.95947265625	0.2	RANDOM	0	n/a	0	1	0	NONE	2128.0	0
1009.2890625	0.2	COHERENT	1	0.548576390859125	0	0	180	LEFT	2132.0	1
1010.458984375	0.2	RANDOM	0	n/a	0	1	0	NONE	2136.0	0
1012.48876953125	0.2	RANDOM	0	0.855898059395258	0	0	0	NONE	2137.0	1
1014.02880859375	0.2	RANDOM	0	0.592724452971197	0	0	0	NONE	2140.0	1
1015.298828125	0.2	RANDOM	0	0.502639611130689	0	0	0	NONE	2144.0	1
1016.548828125	0.2	COHERENT	1	0.489431292839072	0	0	180	LEFT	2148.0	1
1017.728515625	0.2	RANDOM	0	0.568378756578568	0	0	0	NONE	2152.0	1
1019.17822265625	0.2	RANDOM	0	0.604144657330835	0	0	0	NONE	2156.0	1
1020.37841796875	0.2	COHERENT	1	0.518045341546895	0	0	0	RIGHT	2160.0	1
1021.498046875	0.2	RANDOM	0	0.617859768885864	0	0	0	NONE	2164.0	1
1022.88818359375	0.2	RANDOM	0	0.609640300538558	0	0	0	NONE	2168.0	1
1024.18798828125	0.2	COHERENT	1	0.518456148951373	0	0	180	LEFT	2172.0	1
1025.48779296875	0.2	RANDOM	0	0.634946761050742	0	0	0	NONE	2176.0	1
1026.81787109375	0.2	COHERENT	1	0.497149702926436	0	0	180	LEFT	2180.0	1
1028.06787109375	0.2	COHERENT	1	0.639931988886929	0	0	0	RIGHT	2184.0	1
1029.40771484375	0.2	COHERENT	1	0.628337621506034	0	0	0	RIGHT	2188.0	1
1030.7373046875	0.2	COHERENT	1	0.577668859651567	0	0	0	RIGHT	2192.0	1
1032.1572265625	0.2	COHERENT	1	0.519428684920967	0	0	180	LEFT	2196.0	1
1033.49755859375	0.2	COHERENT	1	0.529380124527961	0	0	180	LEFT	2200.0	1
1034.84716796875	0.2	COHERENT	1	0.634028858541569	0	0	180	LEFT	2204.0	1
1036.34716796875	0.2	COHERENT	1	0.544957905069168	0	0	180	LEFT	2208.0	1
1037.716796875	0.2	RANDOM	0	0.634820590958952	0	0	0	NONE	2212.0	1
1039.22705078125	0.2	RANDOM	0	0.584489288823534	0	0	0	NONE	2215.0	1
1040.5966796875	0.2	COHERENT	1	0.594392433657958	0	0	0	RIGHT	2219.0	1
1041.81689453125	0.2	RANDOM	0	0.713167388472357	0	0	0	NONE	2223.0	1
1043.146484375	0.2	COHERENT	1	0.542976008364349	0	0	180	LEFT	2227.0	1
1044.5166015625	0.2	COHERENT	1	0.634879148370601	0	0	0	RIGHT	2231.0	1
1045.90625	0.2	COHERENT	1	0.519665932988573	0	0	180	LEFT	2235.0	1
1047.1162109375	0.2	RANDOM	0	0.598454627664978	0	0	0	NONE	2239.0	1
1048.55615234375	0.2	RANDOM	0	0.614002827659533	0	0	0	NONE	2243.0	1
1049.77587890625	0.2	RANDOM	0	0.608146784715245	0	0	0	NONE	2247.0	1
1051.076171875	0.2	COHERENT	1	0.818047937391384	0	0	180	LEFT	2251.0	1
