onset	duration	trial_type	trial_type_id	response_time	bad_epoch	outliers	event_num	response_accuracy
16.9111328125	0.2	SCRAMBLED	0	0.712745412902223	0	0	1.0	1
18.3310546875	0.2	SCRAMBLED	0	0.447456193623566	0	0	9.0	1
19.56103515625	0.2	FACES	1	0.464360571182169	0	0	17.0	1
20.74072265625	0.2	FACES	1	0.4603424461543	0	0	25.0	1
21.86083984375	0.2	SCRAMBLED	0	0.474100721161449	0	0	33.0	1
23.03076171875	0.2	SCRAMBLED	0	0.420010274712695	0	0	41.0	1
24.380859375	0.2	FACES	1	0.374763506538329	0	0	49.0	1
25.6806640625	0.2	SCRAMBLED	0	0.335564753026574	0	0	57.0	1
26.73046875	0.2	SCRAMBLED	0	0.423602500220568	0	0	65.0	1
28.1201171875	0.2	SCRAMBLED	0	0.477304777439713	0	0	73.0	1
29.2802734375	0.2	SCRAMBLED	0	0.409175342621438	0	0	81.0	1
30.490234375	0.2	SCRAMBLED	0	0.4710545284197	0	0	89.0	1
31.64990234375	0.2	FACES	1	0.257598578684792	0	0	97.0	1
32.85009765625	0.2	SCRAMBLED	0	0.523735974896681	0	0	105.0	1
34.06982421875	0.2	FACES	1	0.382562508526917	0	0	113.0	1
35.2099609375	0.2	FACES	1	0.380329479008196	0	0	121.0	1
36.4697265625	0.2	SCRAMBLED	0	0.26228739735825	0	0	129.0	1
37.45947265625	0.2	SCRAMBLED	0	0.395087757637612	0	0	139.0	1
38.58935546875	0.2	SCRAMBLED	0	0.408964656678563	0	0	147.0	1
39.939453125	0.2	SCRAMBLED	0	0.392724935918523	0	0	155.0	1
41.25927734375	0.2	FACES	1	0.384561610243964	0	0	163.0	1
42.4091796875	0.2	FACES	1	0.469500644131585	0	0	171.0	1
43.54931640625	0.2	FACES	1	0.358543405530327	0	0	179.0	1
44.8291015625	0.2	SCRAMBLED	0	0.313743363996309	0	0	187.0	1
45.92919921875	0.2	SCRAMBLED	0	0.430002161191169	0	0	195.0	1
47.1689453125	0.2	FACES	1	0.372789457734598	0	0	203.0	1
48.2490234375	0.2	FACES	1	0.419798683243243	0	0	211.0	1
49.548828125	0.2	FACES	1	0.405590059487167	0	0	219.0	1
50.86865234375	0.2	SCRAMBLED	0	0.394366354481463	0	0	227.0	1
52.0986328125	0.2	FACES	1	0.456268178453684	0	0	235.0	1
53.36865234375	0.2	SCRAMBLED	0	0.385128168287793	0	0	243.0	1
54.6181640625	0.2	FACES	1	0.291996831862889	0	0	251.0	1
55.8681640625	0.2	SCRAMBLED	0	0.40777056844172	0	0	259.0	1
57.2080078125	0.2	SCRAMBLED	0	n/a	0	1	267.0	0
58.43798828125	0.2	FACES	1	0.409450622821623	0	0	275.0	1
59.7880859375	0.2	SCRAMBLED	0	0.461278459203641	0	0	283.0	1
61.0576171875	0.2	FACES	1	0.430025403049967	0	0	291.0	1
62.45751953125	0.2	SCRAMBLED	0	0.325968883678343	0	0	299.0	1
63.7275390625	0.2	FACES	1	0.374765317592392	0	0	307.0	1
64.87744140625	0.2	SCRAMBLED	0	0.5215916870211	0	0	315.0	1
66.3671875	0.2	SCRAMBLED	0	0.455324015661972	0	0	323.0	1
67.5673828125	0.2	SCRAMBLED	0	0.462226244103476	0	0	331.0	1
68.9970703125	0.2	SCRAMBLED	0	n/a	0	1	339.0	0
69.947265625	0.2	FACES	1	0.552960952469221	0	0	349.0	1
71.466796875	0.2	SCRAMBLED	0	0.504742848449951	0	0	355.0	1
72.8369140625	0.2	SCRAMBLED	0	n/a	0	1	363.0	0
n/a	0.2	SCRAMBLED	0	n/a	1	1	n/a	0
76.0166015625	0.2	FACES	1	0.340806546839303	0	0	367.0	1
77.306640625	0.2	FACES	1	0.43615008566303	0	0	375.0	1
78.57666015625	0.2	SCRAMBLED	0	0.432779412421951	0	0	383.0	1
79.826171875	0.2	SCRAMBLED	0	0.454659962547339	0	0	391.0	1
81.04638671875	0.2	SCRAMBLED	0	0.485561372392567	0	0	399.0	1
82.30615234375	0.2	FACES	1	0.445277495723076	0	0	407.0	1
83.55615234375	0.2	FACES	1	0.383206640048229	0	0	415.0	1
84.8662109375	0.2	FACES	1	0.411031069234468	0	0	423.0	1
86.17578125	0.2	FACES	1	0.410813440917991	0	0	431.0	1
87.44580078125	0.2	SCRAMBLED	0	0.447719400130609	0	0	439.0	1
88.73583984375	0.2	FACES	1	0.498596433189505	0	0	447.0	1
89.935546875	0.2	SCRAMBLED	0	0.466350315787622	0	0	455.0	1
91.21533203125	0.2	FACES	1	0.303254645051766	0	0	463.0	1
92.24560546875	0.2	FACES	1	0.393035229828911	0	0	471.0	1
93.50537109375	0.2	SCRAMBLED	0	0.456572133675309	0	0	479.0	1
94.7353515625	0.2	SCRAMBLED	0	0.481700205373272	0	0	487.0	1
96.115234375	0.2	FACES	1	0.321600017869059	0	0	495.0	1
97.13525390625	0.2	SCRAMBLED	0	0.470346708167654	0	0	503.0	1
98.384765625	0.2	SCRAMBLED	0	0.483274614939546	0	0	511.0	1
99.634765625	0.2	FACES	1	0.388107050191593	0	0	519.0	1
100.95458984375	0.2	SCRAMBLED	0	0.46399292723072	0	0	527.0	1
102.1044921875	0.2	FACES	1	0.42481469899667	0	0	535.0	1
103.3447265625	0.2	FACES	1	0.504601586241733	0	0	543.0	1
104.6142578125	0.2	FACES	1	0.440489370924297	0	0	551.0	1
105.82421875	0.2	SCRAMBLED	0	0.503350449805566	0	0	559.0	1
107.12451171875	0.2	SCRAMBLED	0	0.489086890746421	0	0	567.0	1
108.494140625	0.2	SCRAMBLED	0	0.503941758919609	0	0	575.0	1
109.89404296875	0.2	SCRAMBLED	0	0.529778858239297	0	0	583.0	1
111.2138671875	0.2	SCRAMBLED	0	0.411794126631321	0	0	591.0	1
112.4638671875	0.2	FACES	1	0.305269744411817	0	0	599.0	1
113.70361328125	0.2	FACES	1	0.32528068317788	0	0	607.0	1
114.7138671875	0.2	SCRAMBLED	0	0.560123972679321	0	0	615.0	1
116.103515625	0.2	FACES	1	0.475768701848665	0	0	623.0	1
117.53369140625	0.2	FACES	1	0.401826387539131	0	0	631.0	1
118.6533203125	0.2	SCRAMBLED	0	0.46759571721941	0	0	639.0	1
120.05322265625	0.2	FACES	1	0.354510490227767	0	0	647.0	1
121.3232421875	0.2	FACES	1	0.363419064602567	0	0	655.0	1
122.47314453125	0.2	SCRAMBLED	0	0.440091542740447	0	0	663.0	1
123.77294921875	0.2	SCRAMBLED	0	0.498752787513695	0	0	671.0	1
125.1630859375	0.2	SCRAMBLED	0	0.362381028847722	0	0	679.0	1
126.373046875	0.2	FACES	1	0.402713803974166	0	0	687.0	1
127.6728515625	0.2	SCRAMBLED	0	0.541517506250784	0	0	695.0	1
129.11279296875	0.2	FACES	1	0.382290850434856	0	0	703.0	1
130.41259765625	0.2	SCRAMBLED	0	0.456209319200752	0	0	711.0	1
131.6123046875	0.2	SCRAMBLED	0	0.432917656206428	0	0	719.0	1
132.71240234375	0.2	SCRAMBLED	0	0.474857741712185	0	0	727.0	1
134.0322265625	0.2	FACES	1	0.342697890846921	0	0	735.0	1
135.1123046875	0.2	SCRAMBLED	0	0.43853645108311	0	0	743.0	1
136.35205078125	0.2	FACES	1	0.486567111019212	0	0	751.0	1
137.751953125	0.2	SCRAMBLED	0	0.495238437325952	0	0	759.0	1
139.07177734375	0.2	FACES	1	0.367048416716443	0	0	767.0	1
140.3017578125	0.2	SCRAMBLED	0	0.436787878495124	0	0	775.0	1
141.57177734375	0.2	FACES	1	0.515604040823746	0	0	783.0	1
142.95166015625	0.2	FACES	1	0.420563249851512	0	0	791.0	1
144.0712890625	0.2	FACES	1	0.430397574636572	0	0	799.0	1
145.29150390625	0.2	FACES	1	0.336250236946398	0	0	807.0	1
146.59130859375	0.2	SCRAMBLED	0	0.45704059296304	0	0	815.0	1
147.94140625	0.2	FACES	1	0.473894864696376	0	0	823.0	1
149.3310546875	0.2	SCRAMBLED	0	0.376746610612827	0	0	831.0	1
150.56103515625	0.2	FACES	1	0.367417871721955	0	0	839.0	1
151.90087890625	0.2	SCRAMBLED	0	0.463329477800926	0	0	847.0	1
153.28076171875	0.2	FACES	1	0.31626133266991	0	0	855.0	1
154.53076171875	0.2	FACES	1	0.360099402714241	0	0	863.0	1
155.75048828125	0.2	SCRAMBLED	0	0.4638960358443	0	0	871.0	1
156.88037109375	0.2	FACES	1	0.349422636001236	0	0	879.0	1
157.92041015625	0.2	SCRAMBLED	0	0.469597535518005	0	0	887.0	1
159.30029296875	0.2	SCRAMBLED	0	0.527490289732214	0	0	895.0	1
160.67041015625	0.2	FACES	1	0.296260354701189	0	0	903.0	1
161.7900390625	0.2	FACES	1	0.309101029040448	0	0	911.0	1
162.8701171875	0.2	FACES	1	0.326946550968387	0	0	919.0	1
164.009765625	0.2	SCRAMBLED	0	0.466867069847467	0	0	927.0	1
165.259765625	0.2	FACES	1	0.427593761281514	0	0	935.0	1
166.51953125	0.2	FACES	1	0.426517995235827	0	0	943.0	1
167.82958984375	0.2	FACES	1	0.336289778290848	0	0	951.0	1
168.9794921875	0.2	SCRAMBLED	0	0.466138120633332	0	0	959.0	1
170.15966796875	0.2	SCRAMBLED	0	0.496044054490994	0	0	967.0	1
171.32958984375	0.2	SCRAMBLED	0	0.437597721452676	0	0	975.0	1
172.4794921875	0.2	SCRAMBLED	0	0.445695547342439	0	0	983.0	1
173.79931640625	0.2	FACES	1	0.328311481961009	0	0	991.0	1
174.92919921875	0.2	FACES	1	0.330501951712449	0	0	999.0	1
176.12890625	0.2	SCRAMBLED	0	0.568283072561371	0	0	1007.0	1
177.369140625	0.2	SCRAMBLED	0	0.566084754909753	0	0	1015.0	1
178.77880859375	0.2	FACES	1	0.413625705858067	0	0	1023.0	1
180.138671875	0.2	FACES	1	0.406804371159524	0	0	1031.0	1
181.2685546875	0.2	FACES	1	0.357616145908196	0	0	1039.0	1
182.4384765625	0.2	SCRAMBLED	0	0.506472103128999	0	0	1047.0	1
183.78857421875	0.2	FACES	1	0.508306398936384	0	0	1055.0	1
185.20849609375	0.2	FACES	1	0.429069468407306	0	0	1063.0	1
186.318359375	0.2	SCRAMBLED	0	0.492938700653667	0	0	1071.0	1
187.7783203125	0.2	FACES	1	0.361799680530112	0	0	1079.0	1
188.908203125	0.2	SCRAMBLED	0	0.444614951819858	0	0	1087.0	1
190.13818359375	0.2	FACES	1	0.346530081002129	0	0	1095.0	1
191.19775390625	0.2	SCRAMBLED	0	0.487354919486734	0	0	1103.0	1
192.5478515625	0.2	FACES	1	0.35109091853019	0	0	1111.0	1
193.74755859375	0.2	FACES	1	0.324066673347261	0	0	1119.0	1
195.02734375	0.2	FACES	1	0.291696498749843	0	0	1127.0	1
196.24755859375	0.2	SCRAMBLED	0	0.516598611283825	0	0	1135.0	1
197.46728515625	0.2	FACES	1	0.319532699786123	0	0	1143.0	1
198.6474609375	0.2	FACES	1	0.371373515388314	0	0	1151.0	1
199.68701171875	0.2	SCRAMBLED	0	0.505323894924913	0	0	1159.0	1
201.06689453125	0.2	FACES	1	0.298050279687232	0	0	1167.0	1
202.2470703125	0.2	FACES	1	0.366870631587062	0	0	1175.0	1
203.51708984375	0.2	FACES	1	0.432750737400966	0	0	1183.0	1
n/a	0.2	SCRAMBLED	0	n/a	1	1	n/a	0
n/a	0.2	FACES	1	0.481836638104596	1	0	n/a	1
251.35302734375	0.2	FACES	1	0.311600887174791	0	0	1191.0	1
252.373046875	0.2	SCRAMBLED	0	0.447393108577216	0	0	1199.0	1
n/a	0.2	SCRAMBLED	0	0.441162479308787	1	0	n/a	1
n/a	0.2	SCRAMBLED	0	0.523199601085253	1	0	n/a	1
256.29296875	0.2	FACES	1	0.438013358333592	0	0	1207.0	1
257.62255859375	0.2	SCRAMBLED	0	0.433812015015064	0	0	1215.0	1
258.8828125	0.2	FACES	1	0.41688107533173	0	0	1223.0	1
260.232421875	0.2	FACES	1	0.327487452414516	0	0	1231.0	1
261.482421875	0.2	FACES	1	0.31629000769135	0	0	1239.0	1
262.76220703125	0.2	SCRAMBLED	0	0.438144961587568	0	0	1247.0	1
263.8623046875	0.2	SCRAMBLED	0	0.563043693487998	0	0	1255.0	1
265.2822265625	0.2	FACES	1	0.353817762092604	0	0	1263.0	1
266.33203125	0.2	SCRAMBLED	0	0.491729520300396	0	0	1271.0	1
267.501953125	0.2	SCRAMBLED	0	0.432539145931059	0	0	1279.0	1
268.85205078125	0.2	SCRAMBLED	0	0.416361302848145	0	0	1287.0	1
270.19189453125	0.2	SCRAMBLED	0	0.368822947743411	0	0	1295.0	1
271.3515625	0.2	FACES	1	0.382057224475375	0	0	1303.0	1
272.40185546875	0.2	FACES	1	0.402802243775113	0	0	1311.0	1
273.5517578125	0.2	FACES	1	0.379755374906381	0	0	1319.0	1
274.67138671875	0.2	SCRAMBLED	0	0.431596190508571	0	0	1327.0	1
275.92138671875	0.2	FACES	1	0.430380067781698	0	0	1335.0	1
277.111328125	0.2	FACES	1	0.362302549843207	0	0	1343.0	1
278.28125	0.2	FACES	1	0.399244126449958	0	0	1351.0	1
279.44091796875	0.2	FACES	1	0.441976849901039	0	0	1359.0	1
280.5908203125	0.2	FACES	1	0.349846724467625	0	0	1367.0	1
281.68115234375	0.2	SCRAMBLED	0	0.540535915010878	0	0	1375.0	1
282.98095703125	0.2	SCRAMBLED	0	0.443527715765867	0	0	1383.0	1
284.1806640625	0.2	FACES	1	0.371340916417466	0	0	1391.0	1
285.50048828125	0.2	FACES	1	0.496271039919066	0	0	1399.0	1
286.900390625	0.2	SCRAMBLED	0	0.479701405498872	0	0	1407.0	1
288.05029296875	0.2	SCRAMBLED	0	0.444975351555968	0	0	1415.0	1
289.42041015625	0.2	FACES	1	0.416781769206409	0	0	1423.0	1
290.650390625	0.2	FACES	1	0.590585296415156	0	0	1431.0	1
292.150390625	0.2	SCRAMBLED	0	0.497156343457846	0	0	1438.0	1
293.47021484375	0.2	SCRAMBLED	0	0.506209198463694	0	0	1446.0	1
294.7099609375	0.2	FACES	1	0.366507515270314	0	0	1454.0	1
295.90966796875	0.2	FACES	1	0.394988149670098	0	0	1462.0	1
297.18994140625	0.2	SCRAMBLED	0	n/a	0	1	1470.0	0
298.35986328125	0.2	SCRAMBLED	0	0.4916081796855	0	0	1478.0	1
299.53955078125	0.2	SCRAMBLED	0	0.481375121189558	0	0	1486.0	1
300.87939453125	0.2	FACES	1	0.390292690465685	0	0	1494.0	1
301.99951171875	0.2	FACES	1	0.447052026750498	0	0	1502.0	1
303.2294921875	0.2	FACES	1	0.377035171875377	0	0	1510.0	1
304.3994140625	0.2	SCRAMBLED	0	0.52377038492159	0	0	1518.0	1
305.8193359375	0.2	SCRAMBLED	0	0.459605045354692	0	0	1526.0	1
306.97900390625	0.2	SCRAMBLED	0	0.405261655037521	0	0	1534.0	1
308.2490234375	0.2	FACES	1	0.471357276271647	0	0	1542.0	1
309.4990234375	0.2	SCRAMBLED	0	0.423080011155889	0	0	1550.0	1
310.888671875	0.2	SCRAMBLED	0	0.467836889236878	0	0	1558.0	1
312.11865234375	0.2	FACES	1	0.382874613490912	0	0	1566.0	1
313.23876953125	0.2	FACES	1	0.364655108923216	0	0	1574.0	1
314.3583984375	0.2	SCRAMBLED	0	0.518545494278897	0	0	1582.0	1
315.658203125	0.2	FACES	1	0.446332736490149	0	0	1590.0	1
316.818359375	0.2	FACES	1	0.432206515689359	0	0	1598.0	1
318.13818359375	0.2	SCRAMBLED	0	0.503413836693653	0	0	1606.0	1
319.52783203125	0.2	FACES	1	0.497815868937778	0	0	1614.0	1
320.8779296875	0.2	FACES	1	0.42064595464899	0	0	1622.0	1
322.177734375	0.2	SCRAMBLED	0	0.47290874582086	0	0	1630.0	1
323.34765625	0.2	FACES	1	0.422316953759037	0	0	1638.0	1
324.5478515625	0.2	FACES	1	0.418074861725927	0	0	1646.0	1
325.77734375	0.2	FACES	1	0.329900681801519	0	0	1654.0	1
326.9775390625	0.2	FACES	1	0.308891852309898	0	0	1662.0	1
328.02734375	0.2	SCRAMBLED	0	0.570673361932222	0	0	1670.0	1
329.4970703125	0.2	SCRAMBLED	0	0.543588748284037	0	0	1678.0	1
330.79736328125	0.2	FACES	1	0.480335878065489	0	0	1686.0	1
331.9873046875	0.2	FACES	1	0.411113774031492	0	0	1694.0	1
333.13720703125	0.2	FACES	1	0.363093376734014	0	0	1702.0	1
334.23681640625	0.2	SCRAMBLED	0	0.549871898117544	0	0	1710.0	1
335.60693359375	0.2	SCRAMBLED	0	n/a	0	1	1718.0	0
337.556640625	0.2	FACES	1	0.302576103505089	0	0	1720.0	1
338.6865234375	0.2	FACES	1	0.466356050792001	0	0	1728.0	1
339.9765625	0.2	SCRAMBLED	0	0.389162592801313	0	0	1736.0	1
341.03662109375	0.2	FACES	1	0.414805909348161	0	0	1744.0	1
342.146484375	0.2	SCRAMBLED	0	0.552832065796792	0	0	1752.0	1
343.55615234375	0.2	SCRAMBLED	0	0.525643014704656	0	0	1760.0	1
345.00634765625	0.2	FACES	1	0.397546565215634	0	0	1768.0	1
346.326171875	0.2	SCRAMBLED	0	0.525307667881862	0	0	1776.0	1
347.666015625	0.2	SCRAMBLED	0	0.537288997122687	0	0	1784.0	1
348.99560546875	0.2	SCRAMBLED	0	0.452797293560707	0	0	1792.0	1
350.24560546875	0.2	SCRAMBLED	0	0.419866597766031	0	0	1800.0	1
351.36572265625	0.2	SCRAMBLED	0	0.410762731407431	0	0	1808.0	1
352.6357421875	0.2	SCRAMBLED	0	0.359595326032377	0	0	1816.0	1
353.8056640625	0.2	SCRAMBLED	0	0.426396352778738	0	0	1824.0	1
354.9052734375	0.2	SCRAMBLED	0	0.458317385997361	0	0	1832.0	1
356.3154296875	0.2	SCRAMBLED	0	0.406083873530406	0	0	1840.0	1
357.60498046875	0.2	FACES	1	0.408876820562	0	0	1848.0	1
358.85498046875	0.2	FACES	1	0.406857193566793	0	0	1856.0	1
360.18505859375	0.2	SCRAMBLED	0	0.364573309652769	0	0	1864.0	1
361.4248046875	0.2	SCRAMBLED	0	0.426384279086051	0	0	1872.0	1
362.52490234375	0.2	FACES	1	0.576303023131914	0	0	1880.0	1
363.95458984375	0.2	FACES	1	0.420081811343607	0	0	1888.0	1
365.29443359375	0.2	SCRAMBLED	0	0.549896347345566	0	0	1896.0	1
366.62451171875	0.2	SCRAMBLED	0	n/a	0	1	1904.0	0
368.62451171875	0.2	SCRAMBLED	0	0.36856457071417	0	0	1906.0	1
369.89404296875	0.2	SCRAMBLED	0	0.422350760099562	0	0	1914.0	1
370.994140625	0.2	FACES	1	0.417139150519233	0	0	1922.0	1
372.23388671875	0.2	SCRAMBLED	0	0.497055528121564	0	0	1930.0	1
373.4638671875	0.2	SCRAMBLED	0	0.461871881213938	0	0	1938.0	1
374.78369140625	0.2	SCRAMBLED	0	0.456538025492591	0	0	1946.0	1
376.00390625	0.2	SCRAMBLED	0	0.347576266500255	0	0	1954.0	1
377.07373046875	0.2	SCRAMBLED	0	0.296419123763826	0	0	1962.0	1
378.25341796875	0.2	SCRAMBLED	0	0.373294439943493	0	0	1970.0	1
379.5732421875	0.2	SCRAMBLED	0	0.399139085321167	0	0	1978.0	1
380.7734375	0.2	FACES	1	0.453951236768717	0	0	1986.0	1
381.943359375	0.2	SCRAMBLED	0	0.536813293619161	0	0	1994.0	1
383.203125	0.2	SCRAMBLED	0	0.342593151559868	0	0	2002.0	1
384.5029296875	0.2	SCRAMBLED	0	0.336532459519731	0	0	2010.0	1
385.6630859375	0.2	FACES	1	n/a	0	1	2018.0	0
386.77294921875	0.2	SCRAMBLED	0	n/a	0	1	2026.0	0
388.73291015625	0.2	FACES	1	0.403829715048687	0	0	2028.0	1
389.99267578125	0.2	FACES	1	0.380839290694439	0	0	2036.0	1
391.142578125	0.2	FACES	1	0.468600852161217	0	0	2044.0	1
392.4423828125	0.2	FACES	1	0.446513238200623	0	0	2052.0	1
393.5625	0.2	SCRAMBLED	0	0.55733072380599	0	0	2060.0	1
394.982421875	0.2	SCRAMBLED	0	0.47608956023987	0	0	2068.0	1
396.412109375	0.2	SCRAMBLED	0	0.458754151841276	0	0	2076.0	1
397.6220703125	0.2	SCRAMBLED	0	0.609828348307019	0	0	2084.0	1
399.1318359375	0.2	FACES	1	0.451567286087538	0	0	2090.0	1
400.40185546875	0.2	FACES	1	0.441469754795435	0	0	2098.0	1
401.501953125	0.2	SCRAMBLED	0	0.478331343186255	0	0	2106.0	1
402.82177734375	0.2	SCRAMBLED	0	0.801870396149752	0	0	2114.0	1
404.29150390625	0.2	SCRAMBLED	0	0.466854392469941	0	0	2122.0	1
405.5615234375	0.2	FACES	1	0.451784914403561	0	0	2130.0	1
406.84130859375	0.2	FACES	1	0.418741631421653	0	0	2138.0	1
407.94140625	0.2	FACES	1	0.364363227394733	0	0	2146.0	1
409.0810546875	0.2	FACES	1	0.361260891980237	0	0	2154.0	1
410.2412109375	0.2	FACES	1	0.402121287490445	0	0	2162.0	1
411.3408203125	0.2	FACES	1	0.392063599384983	0	0	2170.0	1
412.39111328125	0.2	SCRAMBLED	0	0.405737660383693	0	0	2178.0	1
413.7607421875	0.2	FACES	1	0.542734232662497	0	0	2186.0	1
415.060546875	0.2	FACES	1	0.620567596381079	0	0	2194.0	1
416.3505859375	0.2	FACES	1	0.532386775925715	0	0	2202.0	1
417.6806640625	0.2	FACES	1	0.400123393142621	0	0	2210.0	1
418.95068359375	0.2	FACES	1	0.383103711815693	0	0	2218.0	1
420.0703125	0.2	SCRAMBLED	0	0.52971245292747	0	0	2226.0	1
421.50048828125	0.2	FACES	1	0.483609659920148	0	0	2234.0	1
422.80029296875	0.2	FACES	1	0.441545215376664	0	0	2242.0	1
424.06982421875	0.2	FACES	1	0.387359084910713	0	0	2250.0	1
425.2099609375	0.2	SCRAMBLED	0	0.331263801740533	0	0	2258.0	1
426.4599609375	0.2	FACES	1	0.429069468407306	0	0	2266.0	1
427.58984375	0.2	FACES	1	0.389633466827945	0	0	2274.0	1
428.6796875	0.2	FACES	1	0.4558045486433	0	0	2282.0	1
429.90966796875	0.2	SCRAMBLED	0	0.382611105141677	0	0	2290.0	1
431.20947265625	0.2	SCRAMBLED	0	0.458410655275202	0	0	2298.0	1
432.359375	0.2	FACES	1	0.455428754948571	0	0	2306.0	1
433.69921875	0.2	SCRAMBLED	0	0.553120325217151	0	0	2314.0	1
435.029296875	0.2	FACES	1	0.425876278453416	0	0	2322.0	1
436.14892578125	0.2	FACES	1	0.556860453463742	0	0	2330.0	1
630.29443359375	0.2	FACES	1	0.360595027811542	0	0	2334.0	1
631.43408203125	0.2	FACES	1	0.28584105948994	0	0	2342.0	1
632.6142578125	0.2	FACES	1	0.281629453532332	0	0	2350.0	1
633.63427734375	0.2	SCRAMBLED	0	0.392468973627729	0	0	2358.0	1
634.8837890625	0.2	SCRAMBLED	0	0.319360347818474	0	0	2366.0	1
635.93408203125	0.2	FACES	1	0.481112518366899	0	0	2374.0	1
n/a	0.2	SCRAMBLED	0	0.42802841422963	1	0	n/a	1
n/a	0.2	SCRAMBLED	0	0.512850936978793	1	0	n/a	1
639.82373046875	0.2	FACES	1	0.391750588894865	0	0	2382.0	1
641.17333984375	0.2	FACES	1	0.35251289772259	0	0	2390.0	1
642.4931640625	0.2	SCRAMBLED	0	0.4562998718975	0	0	2398.0	1
643.80322265625	0.2	FACES	1	0.493104412089451	0	0	2406.0	1
645.17333984375	0.2	SCRAMBLED	0	0.473028879066078	0	0	2414.0	1
646.31298828125	0.2	SCRAMBLED	0	0.447804519666533	0	0	2422.0	1
647.4228515625	0.2	FACES	1	0.390631659396604	0	0	2430.0	1
n/a	0.2	SCRAMBLED	0	0.528451657537516	1	0	n/a	1
650.142578125	0.2	SCRAMBLED	0	0.581325679417205	0	0	2438.0	1
651.4326171875	0.2	FACES	1	0.452125996230279	0	0	2446.0	1
652.79248046875	0.2	FACES	1	0.741892816998188	0	0	2454.0	1
654.3623046875	0.2	SCRAMBLED	0	0.46377710996876	0	0	2460.0	1
655.65234375	0.2	SCRAMBLED	0	0.667555391084534	0	0	2468.0	1
657.072265625	0.2	FACES	1	0.411243868073143	0	0	2476.0	1
658.2021484375	0.2	SCRAMBLED	0	0.585306979681263	0	0	2484.0	1
659.572265625	0.2	SCRAMBLED	0	0.673112911969838	0	0	2492.0	1
661.2021484375	0.2	SCRAMBLED	0	0.516864534371962	0	0	2498.0	1
662.62158203125	0.2	FACES	1	0.513780309496724	0	0	2506.0	1
663.95166015625	0.2	SCRAMBLED	0	0.606539172493285	0	0	2514.0	1
665.3916015625	0.2	FACES	1	0.327489565310316	0	0	2522.0	1
666.6416015625	0.2	SCRAMBLED	0	0.405130051783999	0	0	2530.0	1
667.861328125	0.2	SCRAMBLED	0	0.579083594628173	0	0	2538.0	1
669.1611328125	0.2	FACES	1	0.444841333564	0	0	2546.0	1
670.53125	0.2	SCRAMBLED	0	0.588748887710608	0	0	2554.0	1
672.041015625	0.2	SCRAMBLED	0	0.421536691349502	0	0	2560.0	1
673.1611328125	0.2	SCRAMBLED	0	n/a	0	1	2568.0	0
674.4111328125	0.2	FACES	1	0.480272793019139	0	0	2576.0	1
675.630859375	0.2	SCRAMBLED	0	0.482085959864889	0	0	2584.0	1
677.05078125	0.2	FACES	1	0.475961277251372	0	0	2592.0	1
678.37060546875	0.2	FACES	1	0.445666872322363	0	0	2600.0	1
679.67041015625	0.2	SCRAMBLED	0	0.446549761122697	0	0	2608.0	1
681.05029296875	0.2	FACES	1	0.458366888138698	0	0	2616.0	1
682.30029296875	0.2	SCRAMBLED	0	0.470168017511241	0	0	2624.0	1
683.7001953125	0.2	FACES	1	0.548023415720309	0	0	2632.0	1
685.0400390625	0.2	FACES	1	0.596822566214541	0	0	2640.0	1
686.31982421875	0.2	SCRAMBLED	0	0.492638971224551	0	0	2648.0	1
687.64013671875	0.2	FACES	1	0.395582175365234	0	0	2656.0	1
688.9296875	0.2	FACES	1	0.707306516051176	0	0	2664.0	1
690.40966796875	0.2	FACES	1	0.476118235260401	0	0	2672.0	1
691.6796875	0.2	SCRAMBLED	0	0.474085930887668	0	0	2680.0	1
693.109375	0.2	FACES	1	0.440852789083692	0	0	2688.0	1
694.37939453125	0.2	SCRAMBLED	0	0.443720894852959	0	0	2696.0	1
695.609375	0.2	FACES	1	0.436519842511188	0	0	2704.0	1
696.91943359375	0.2	SCRAMBLED	0	0.478341002140951	0	0	2712.0	1
698.04931640625	0.2	FACES	1	0.500239059121668	0	0	2720.0	1
699.46923828125	0.2	SCRAMBLED	0	0.589016018168877	0	0	2728.0	1
700.69873046875	0.2	FACES	1	0.57979956462259	0	0	2736.0	1
702.19873046875	0.2	SCRAMBLED	0	0.448484872266818	0	0	2743.0	1
703.48876953125	0.2	SCRAMBLED	0	0.451552193971111	0	0	2751.0	1
704.86865234375	0.2	SCRAMBLED	0	0.462300497315482	0	0	2759.0	1
706.25830078125	0.2	FACES	1	0.4510822254706	0	0	2767.0	1
707.5185546875	0.2	FACES	1	0.489020485434594	0	0	2775.0	1
708.87841796875	0.2	FACES	1	0.439792718839271	0	0	2783.0	1
710.12841796875	0.2	FACES	1	0.463631621967579	0	0	2791.0	1
711.55810546875	0.2	SCRAMBLED	0	0.446233732207475	0	0	2799.0	1
712.8779296875	0.2	SCRAMBLED	0	0.523692811443652	0	0	2807.0	1
714.2978515625	0.2	FACES	1	0.475171054044949	0	0	2815.0	1
715.69775390625	0.2	FACES	1	0.456857374671927	0	0	2823.0	1
717.09765625	0.2	SCRAMBLED	0	0.439768571452987	0	0	2831.0	1
718.49755859375	0.2	SCRAMBLED	0	0.498529726035486	0	0	2839.0	1
719.947265625	0.2	FACES	1	0.340102046853644	0	0	2847.0	1
721.2373046875	0.2	FACES	1	0.598235490137995	0	0	2855.0	1
722.6171875	0.2	SCRAMBLED	0	0.493041025201819	0	0	2863.0	1
723.787109375	0.2	SCRAMBLED	0	0.672735307221046	0	0	2871.0	1
725.2568359375	0.2	SCRAMBLED	0	0.463547106116494	0	0	2879.0	1
726.55712890625	0.2	FACES	1	0.437549728522754	0	0	2887.0	1
727.7568359375	0.2	SCRAMBLED	0	0.535088566574814	0	0	2895.0	1
729.0068359375	0.2	SCRAMBLED	0	0.528293190316617	0	0	2903.0	1
730.40673828125	0.2	FACES	1	0.324989103492044	0	0	2911.0	1
731.5263671875	0.2	SCRAMBLED	0	0.464952182139314	0	0	2919.0	1
732.87646484375	0.2	FACES	1	0.424763989486564	0	0	2927.0	1
733.9765625	0.2	SCRAMBLED	0	0.522595010908844	0	0	2935.0	1
735.2060546875	0.2	FACES	1	0.420348639959229	0	0	2943.0	1
736.326171875	0.2	SCRAMBLED	0	0.462309250743601	0	0	2951.0	1
737.52587890625	0.2	SCRAMBLED	0	0.440077054308858	0	0	2959.0	1
738.72607421875	0.2	SCRAMBLED	0	0.397954354196372	0	0	2967.0	1
739.81591796875	0.2	FACES	1	0.413864463137543	0	0	2975.0	1
741.0859375	0.2	SCRAMBLED	0	0.509597680402294	0	0	2983.0	1
742.53564453125	0.2	SCRAMBLED	0	0.461418815884826	0	0	2991.0	1
743.69580078125	0.2	FACES	1	0.481311734301926	0	0	2999.0	1
745.00537109375	0.2	SCRAMBLED	0	0.397108290159849	0	0	3007.0	1
746.20556640625	0.2	SCRAMBLED	0	0.508869636714735	0	0	3015.0	1
747.38525390625	0.2	SCRAMBLED	0	0.525825931153122	0	0	3023.0	1
748.55517578125	0.2	FACES	1	0.432641168637019	0	0	3031.0	1
749.72509765625	0.2	FACES	1	0.444576014159793	0	0	3039.0	1
750.85498046875	0.2	FACES	1	0.51736347973474	0	0	3047.0	1
752.3447265625	0.2	SCRAMBLED	0	0.497229087458436	0	0	3055.0	1
753.65478515625	0.2	FACES	1	0.438911339249898	0	0	3063.0	1
755.0546875	0.2	FACES	1	0.420851509272325	0	0	3071.0	1
756.3447265625	0.2	FACES	1	0.393615068935105	0	0	3079.0	1
757.66455078125	0.2	FACES	1	0.356439564526227	0	0	3087.0	1
758.82470703125	0.2	FACES	1	0.373361750782351	0	0	3095.0	1
759.96435546875	0.2	SCRAMBLED	0	0.555119125091551	0	0	3103.0	1
761.18408203125	0.2	FACES	1	0.452025180894452	0	0	3111.0	1
762.31396484375	0.2	FACES	1	0.455875179747636	0	0	3119.0	1
763.583984375	0.2	FACES	1	0.412841821340407	0	0	3127.0	1
764.68408203125	0.2	SCRAMBLED	0	0.469750569576718	0	0	3135.0	1
766.11376953125	0.2	FACES	1	0.369969043051242	0	0	3143.0	1
767.40380859375	0.2	SCRAMBLED	0	0.586996089330569	0	0	3151.0	1
768.73388671875	0.2	SCRAMBLED	0	0.458074101083184	0	0	3159.0	1
770.103515625	0.2	FACES	1	0.341943285034176	0	0	3167.0	1
771.3037109375	0.2	FACES	1	0.343794484012506	0	0	3175.0	1
772.59326171875	0.2	SCRAMBLED	0	0.421604605872744	0	0	3183.0	1
773.72314453125	0.2	SCRAMBLED	0	0.507360425090155	0	0	3191.0	1
775.0234375	0.2	FACES	1	0.396274903501762	0	0	3199.0	1
776.373046875	0.2	FACES	1	0.393089863289788	0	0	3207.0	1
777.56298828125	0.2	SCRAMBLED	0	0.62999896166275	0	0	3215.0	1
778.9931640625	0.2	SCRAMBLED	0	0.448776753794846	0	0	3223.0	1
780.3330078125	0.2	SCRAMBLED	0	0.421629658785605	0	0	3231.0	1
781.66259765625	0.2	FACES	1	0.502431339926261	0	0	3239.0	1
782.8125	0.2	FACES	1	0.600292545580487	0	0	3247.0	1
784.3623046875	0.2	SCRAMBLED	0	0.403710185488308	0	0	3253.0	1
785.482421875	0.2	SCRAMBLED	0	0.484993305137323	0	0	3261.0	1
786.90234375	0.2	FACES	1	0.438613119033107	0	0	3269.0	1
788.13232421875	0.2	FACES	1	0.401607250011693	0	0	3277.0	1
789.501953125	0.2	SCRAMBLED	0	0.44855127757728	0	0	3285.0	1
790.73193359375	0.2	FACES	1	0.505307897281455	0	0	3293.0	1
792.10205078125	0.2	FACES	1	0.553720689601505	0	0	3301.0	1
793.4716796875	0.2	SCRAMBLED	0	0.485990592178496	0	0	3309.0	1
794.69189453125	0.2	SCRAMBLED	0	0.451760767017731	0	0	3317.0	1
796.01171875	0.2	FACES	1	0.469123643068087	0	0	3325.0	1
797.3212890625	0.2	FACES	1	0.432358644220585	0	0	3333.0	1
798.62158203125	0.2	SCRAMBLED	0	0.467029461018683	0	0	3341.0	1
799.9912109375	0.2	SCRAMBLED	0	0.649081735279651	0	0	3349.0	1
801.53125	0.2	FACES	1	0.386994761224742	0	0	3355.0	1
802.84130859375	0.2	FACES	1	0.368753222166561	0	0	3363.0	1
803.9111328125	0.2	SCRAMBLED	0	0.501180505331831	0	0	3371.0	1
805.10107421875	0.2	FACES	1	0.376501212802395	0	0	3379.0	1
806.130859375	0.2	SCRAMBLED	0	0.433284092788199	0	0	3387.0	1
807.33056640625	0.2	SCRAMBLED	0	n/a	0	1	3395.0	0
808.55078125	0.2	FACES	1	0.316037365665579	0	0	3403.0	1
809.58056640625	0.2	SCRAMBLED	0	0.506959880325667	0	0	3411.0	1
810.87060546875	0.2	SCRAMBLED	0	0.462615017017924	0	0	3419.0	1
812.2001953125	0.2	FACES	1	0.44238222414333	0	0	3427.0	1
813.55029296875	0.2	FACES	1	0.440342675554348	0	0	3435.0	1
814.650390625	0.2	SCRAMBLED	0	0.487144837227788	0	0	3443.0	1
815.8203125	0.2	SCRAMBLED	0	0.550051494300533	0	0	3451.0	1
817.06005859375	0.2	FACES	1	0.417988232979042	0	0	3459.0	1
818.169921875	0.2	SCRAMBLED	0	0.580657702352255	0	0	3467.0	1
819.5595703125	0.2	FACES	1	0.432952669916631	0	0	3475.0	1
820.83984375	0.2	FACES	1	0.380388941945967	0	0	3483.0	1
821.939453125	0.2	FACES	1	0.451332452758834	0	0	3491.0	1
865.20654296875	0.2	SCRAMBLED	0	0.375362059869076	0	0	3495.0	1
866.26611328125	0.2	FACES	1	0.466586054642903	0	0	3503.0	1
867.47607421875	0.2	SCRAMBLED	0	0.410362488484679	0	0	3511.0	1
868.74609375	0.2	FACES	1	0.343287388906901	0	0	3519.0	1
869.76611328125	0.2	FACES	1	0.515283484273823	0	0	3527.0	1
871.0458984375	0.2	FACES	1	0.381878533818963	0	0	3535.0	1
872.1357421875	0.2	SCRAMBLED	0	0.445780365035716	0	0	3543.0	1
873.24560546875	0.2	SCRAMBLED	0	0.657584633569968	0	0	3551.0	1
874.61572265625	0.2	SCRAMBLED	0	0.395695366238215	0	0	3559.0	1
875.66552734375	0.2	FACES	1	0.441321248372333	0	0	3567.0	1
876.95556640625	0.2	SCRAMBLED	0	0.491096858786477	0	0	3575.0	1
878.13525390625	0.2	SCRAMBLED	0	0.473060270667702	0	0	3583.0	1
879.4853515625	0.2	SCRAMBLED	0	0.442980777473167	0	0	3591.0	1
880.63525390625	0.2	FACES	1	0.432789675060121	0	0	3599.0	1
881.97509765625	0.2	FACES	1	0.332584965596652	0	0	3607.0	1
883.27490234375	0.2	FACES	1	0.363458304104824	0	0	3615.0	1
884.474609375	0.2	SCRAMBLED	0	0.431298573976164	0	0	3623.0	1
885.69482421875	0.2	FACES	1	0.478058779566709	0	0	3631.0	1
887.04443359375	0.2	FACES	1	0.405851756782795	0	0	3639.0	1
888.39453125	0.2	SCRAMBLED	0	0.473747263799851	0	0	3647.0	1
889.54443359375	0.2	FACES	1	0.464731535399551	0	0	3655.0	1
890.9345703125	0.2	SCRAMBLED	0	0.477125784940654	0	0	3663.0	1
892.1943359375	0.2	SCRAMBLED	0	0.771200197526014	0	0	3671.0	1
893.8642578125	0.2	SCRAMBLED	0	0.409043739367917	0	0	3677.0	1
895.15380859375	0.2	FACES	1	0.431842192003387	0	0	3685.0	1
896.36376953125	0.2	SCRAMBLED	0	0.453738739772234	0	0	3693.0	1
897.6640625	0.2	FACES	1	0.369550085904848	0	0	3701.0	1
898.90380859375	0.2	SCRAMBLED	0	0.608277180598634	0	0	3709.0	1
900.423828125	0.2	FACES	1	0.430086978883992	0	0	3715.0	1
901.53369140625	0.2	SCRAMBLED	0	0.53306350641742	0	0	3723.0	1
902.75341796875	0.2	FACES	1	0.375717026442544	0	0	3731.0	1
904.04345703125	0.2	FACES	1	0.443765265675211	0	0	3739.0	1
905.14306640625	0.2	FACES	1	0.470564336484131	0	0	3747.0	1
906.3232421875	0.2	SCRAMBLED	0	0.448732684814786	0	0	3755.0	1
907.4931640625	0.2	SCRAMBLED	0	0.485278847976588	0	0	3763.0	1
908.73291015625	0.2	SCRAMBLED	0	0.617042078027225	0	0	3771.0	1
910.11279296875	0.2	SCRAMBLED	0	0.476125177634458	0	0	3779.0	1
911.31298828125	0.2	SCRAMBLED	0	0.477925063416478	0	0	3787.0	1
912.69287109375	0.2	SCRAMBLED	0	0.415630542579493	0	0	3795.0	1
913.802734375	0.2	FACES	1	0.436476377216422	0	0	3803.0	1
915.0126953125	0.2	FACES	1	0.467343075193639	0	0	3811.0	1
916.41259765625	0.2	FACES	1	0.358074342557302	0	0	3819.0	1
917.50244140625	0.2	FACES	1	0.444001004531856	0	0	3827.0	1
918.6220703125	0.2	FACES	1	0.371471915987058	0	0	3835.0	1
919.83203125	0.2	FACES	1	0.330790211132808	0	0	3843.0	1
920.85205078125	0.2	SCRAMBLED	0	0.422559333145728	0	0	3851.0	1
922.19189453125	0.2	SCRAMBLED	0	0.457816327737419	0	0	3859.0	1
923.501953125	0.2	FACES	1	0.452278124762415	0	0	3867.0	1
924.69189453125	0.2	FACES	1	0.405072701742029	0	0	3875.0	1
925.96142578125	0.2	SCRAMBLED	0	0.388899084451623	0	0	3883.0	1
927.01171875	0.2	FACES	1	0.430796610190555	0	0	3891.0	1
928.12158203125	0.2	SCRAMBLED	0	0.4724786205079	0	0	3899.0	1
929.34130859375	0.2	FACES	1	0.584516756474841	0	0	3907.0	1
930.68115234375	0.2	SCRAMBLED	0	0.357059850503902	0	0	3915.0	1
931.8310546875	0.2	FACES	1	0.365221365124853	0	0	3923.0	1
932.85107421875	0.2	SCRAMBLED	0	0.467081076055365	0	0	3931.0	1
934.01123046875	0.2	SCRAMBLED	0	0.470853199589328	0	0	3939.0	1
935.1611328125	0.2	FACES	1	0.356794832942796	0	0	3947.0	1
936.31103515625	0.2	SCRAMBLED	0	0.421438894436506	0	0	3955.0	1
937.6806640625	0.2	FACES	1	0.38337718096227	0	0	3963.0	1
938.98046875	0.2	SCRAMBLED	0	0.506315145120425	0	0	3971.0	1
940.32080078125	0.2	FACES	1	0.51805922629319	0	0	3979.0	1
941.75048828125	0.2	SCRAMBLED	0	0.42791099756414	0	0	3987.0	1
943.09033203125	0.2	SCRAMBLED	0	0.569638646442399	0	0	3995.0	1
944.34033203125	0.2	FACES	1	0.425547874003314	0	0	4003.0	1
945.68994140625	0.2	SCRAMBLED	0	0.388582451852926	0	0	4011.0	1
946.76025390625	0.2	SCRAMBLED	0	0.450166737699874	0	0	4019.0	1
947.93994140625	0.2	FACES	1	0.567093210117491	0	0	4027.0	1
949.1796875	0.2	SCRAMBLED	0	0.42584820711636	0	0	4035.0	1
950.3095703125	0.2	FACES	1	0.391759644164267	0	0	4043.0	1
951.43994140625	0.2	SCRAMBLED	0	0.429576865355557	0	0	4051.0	1
952.7998046875	0.2	FACES	1	0.366520796332225	0	0	4059.0	1
953.87939453125	0.2	FACES	1	0.410350414791537	0	0	4067.0	1
955.07958984375	0.2	SCRAMBLED	0	0.434120196028744	0	0	4075.0	1
956.45947265625	0.2	FACES	1	0.382066883429616	0	0	4083.0	1
957.779296875	0.2	FACES	1	0.349174219767519	0	0	4091.0	1
958.97900390625	0.2	FACES	1	0.369714288129217	0	0	4099.0	1
960.119140625	0.2	FACES	1	0.361533757441975	0	0	4107.0	1
961.26904296875	0.2	FACES	1	0.356327882866026	0	0	4115.0	1
962.3388671875	0.2	SCRAMBLED	0	0.478273993144285	0	0	4123.0	1
963.5185546875	0.2	FACES	1	0.350084274376968	0	0	4131.0	1
964.798828125	0.2	SCRAMBLED	0	0.473873735732923	0	0	4139.0	1
966.138671875	0.2	SCRAMBLED	0	0.587777559109782	0	0	4147.0	1
967.6884765625	0.2	FACES	1	0.352594696992128	0	0	4153.0	1
968.98828125	0.2	FACES	1	0.321467509088507	0	0	4161.0	1
970.1083984375	0.2	SCRAMBLED	0	0.403166265618893	0	0	4169.0	1
971.38818359375	0.2	SCRAMBLED	0	0.853044442056671	0	0	4177.0	1
973.078125	0.2	FACES	1	0.318815220580291	0	0	4183.0	1
974.10791015625	0.2	SCRAMBLED	0	0.485618118749699	0	0	4191.0	1
975.32763671875	0.2	FACES	1	0.337579550544433	0	0	4199.0	1
976.3779296875	0.2	SCRAMBLED	0	0.445516253002097	0	0	4207.0	1
977.6279296875	0.2	FACES	1	0.382272136210304	0	0	4215.0	1
978.87744140625	0.2	SCRAMBLED	0	n/a	0	1	4223.0	0
979.99755859375	0.2	FACES	1	0.381018585035235	0	0	4231.0	1
981.1474609375	0.2	SCRAMBLED	0	0.485796507563464	0	0	4239.0	1
982.58740234375	0.2	SCRAMBLED	0	0.608593511355139	0	0	4247.0	1
984.13720703125	0.2	FACES	1	0.426491131268449	0	0	4253.0	1
985.43701171875	0.2	SCRAMBLED	0	0.584249626017481	0	0	4261.0	1
986.966796875	0.2	SCRAMBLED	0	0.59207307723409	0	0	4267.0	1
988.43701171875	0.2	FACES	1	0.367843167558021	0	0	4275.0	1
989.73681640625	0.2	SCRAMBLED	0	0.442565442434898	0	0	4283.0	1
990.9267578125	0.2	SCRAMBLED	0	0.480318371211069	0	0	4291.0	1
992.33642578125	0.2	FACES	1	0.376330973731456	0	0	4299.0	1
993.5966796875	0.2	FACES	1	0.467272142246657	0	0	4307.0	1
994.7265625	0.2	FACES	1	0.449838333250227	0	0	4315.0	1
996.12646484375	0.2	FACES	1	0.41383035495528	0	0	4323.0	1
997.51611328125	0.2	SCRAMBLED	0	0.506604310066905	0	0	4331.0	1
998.77587890625	0.2	FACES	1	0.772294375952697	0	0	4339.0	1
1000.27587890625	0.2	FACES	1	0.535288084352032	0	0	4346.0	1
1001.78564453125	0.2	SCRAMBLED	0	0.549037002247132	0	0	4352.0	1
1003.1357421875	0.2	FACES	1	0.691999488075453	0	0	4360.0	1
1004.58544921875	0.2	FACES	1	0.361825035285619	0	0	4368.0	1
1005.90576171875	0.2	FACES	1	0.401658261363991	0	0	4376.0	1
1007.2353515625	0.2	FACES	1	0.368516879626441	0	0	4384.0	1
1008.525390625	0.2	SCRAMBLED	0	0.456280553989018	0	0	4392.0	1
1009.705078125	0.2	FACES	1	0.426095114138661	0	0	4400.0	1
1011.10498046875	0.2	SCRAMBLED	0	0.555593923068955	0	0	4408.0	1
1012.39501953125	0.2	SCRAMBLED	0	0.522785473414842	0	0	4416.0	1
1013.7548828125	0.2	SCRAMBLED	0	0.502612143479382	0	0	4424.0	1
1015.044921875	0.2	FACES	1	0.438342668310725	0	0	4432.0	1
1016.2646484375	0.2	FACES	1	0.407431297668154	0	0	4440.0	1
1017.4248046875	0.2	FACES	1	0.502212504240561	0	0	4448.0	1
1018.82470703125	0.2	SCRAMBLED	0	0.438029355977051	0	0	4456.0	1
1020.234375	0.2	SCRAMBLED	0	0.499784484580232	0	0	4464.0	1
1021.4443359375	0.2	FACES	1	0.410834268038343	0	0	4472.0	1
1022.7841796875	0.2	FACES	1	0.427163032283715	0	0	4480.0	1
1024.13427734375	0.2	SCRAMBLED	0	0.446299231992271	0	0	4488.0	1
1025.5341796875	0.2	SCRAMBLED	0	0.539181850342175	0	0	4496.0	1
1026.8837890625	0.2	FACES	1	0.370049333109819	0	0	4504.0	1
1028.0537109375	0.2	FACES	1	0.37449637608097	0	0	4512.0	1
1029.25390625	0.2	SCRAMBLED	0	0.447584778454257	0	0	4520.0	1
1030.57373046875	0.2	FACES	1	0.358419650176074	0	0	4528.0	1
1031.68359375	0.2	SCRAMBLED	0	0.456336394820028	0	0	4536.0	1
1032.943359375	0.2	SCRAMBLED	0	0.563867723033582	0	0	4544.0	1
1034.47314453125	0.2	SCRAMBLED	0	0.495927543352991	0	0	4550.0	1
1035.84326171875	0.2	SCRAMBLED	0	0.464755079100541	0	0	4558.0	1
1037.123046875	0.2	SCRAMBLED	0	0.436563911489429	0	0	4566.0	1
1038.373046875	0.2	SCRAMBLED	0	0.408398400477381	0	0	4574.0	1
1039.4931640625	0.2	FACES	1	0.460331881672573	0	0	4582.0	1
1040.64306640625	0.2	SCRAMBLED	0	0.583066404104102	0	0	4590.0	1
1042.03271484375	0.2	SCRAMBLED	0	0.657993629919474	0	0	4598.0	1
1043.5927734375	0.2	FACES	1	0.32379199683146	0	0	4604.0	1
1044.58251953125	0.2	SCRAMBLED	0	0.555546835666064	0	0	4614.0	1
1045.91259765625	0.2	FACES	1	0.418553583653193	0	0	4622.0	1
1047.30224609375	0.2	FACES	1	0.48003645047902	0	0	4630.0	1
1048.4521484375	0.2	SCRAMBLED	0	0.478097415384582	0	0	4638.0	1
1049.7822265625	0.2	SCRAMBLED	0	0.457085869311413	0	0	4646.0	1
1051.05224609375	0.2	FACES	1	0.362800891522056	0	0	4654.0	1
1052.3720703125	0.2	FACES	1	0.382918078786133	0	0	4662.0	1
1053.64208984375	0.2	SCRAMBLED	0	0.522560902725672	0	0	4670.0	1
