onset	duration	trial_type	trial_type_id	response_time	repsonse_accuracy	bad_epoch	outliers	event_num
52.876953125	0.2	FACES	1	0.450424513608141	1	0	0	1
54.2568359375	0.2	SCRAMBLED	0	0.4742481665985	1	0	0	9
NaN	0.2	SCRAMBLED	0	0.489242274601111	1	1	0	NaN
NaN	0.2	FACES	1	0.413879035354057	1	1	0	NaN
57.99658203125	0.2	SCRAMBLED	0	NaN	0	0	1	17
59.16650390625	0.2	FACES	1	0.44432001757923	1	0	0	25
60.576171875	0.2	SCRAMBLED	0	0.533379434995823	1	0	0	33
62.06640625	0.2	FACES	1	0.308239922631401	1	0	0	41
63.0458984375	0.2	SCRAMBLED	0	0.393032773029972	1	0	0	51
64.14599609375	0.2	FACES	1	0.367894286935552	1	0	0	59
65.3359375	0.2	SCRAMBLED	0	0.494776888880551	1	0	0	67
66.61572265625	0.2	SCRAMBLED	0	0.500275281861832	1	0	0	75
68.015625	0.2	FACES	1	0.349453118774363	1	0	0	83
69.3056640625	0.2	FACES	1	NaN	0	0	1	91
70.4853515625	0.2	SCRAMBLED	0	0.440814097812108	1	0	0	99
71.6552734375	0.2	SCRAMBLED	0	0.375960166231835	1	0	0	107
72.88525390625	0.2	FACES	1	0.290921614697254	1	0	0	115
74.05517578125	0.2	FACES	1	0.316756757083112	1	0	0	123
75.14501953125	0.2	FACES	1	0.330487043641824	1	0	0	131
76.35498046875	0.2	SCRAMBLED	0	0.402390847119477	1	0	0	139
77.44482421875	0.2	SCRAMBLED	0	0.350080049067856	1	0	0	147
78.52490234375	0.2	SCRAMBLED	0	NaN	0	0	1	155
79.64501953125	0.2	FACES	1	0.444957210573648	1	0	0	163
80.875	0.2	FACES	1	0.37656898587602	1	0	0	171
82.044921875	0.2	SCRAMBLED	0	NaN	0	0	1	179
83.36474609375	0.2	FACES	1	0.401492558938116	1	0	0	187
84.66455078125	0.2	FACES	1	0.484267883058237	1	0	0	195
85.89453125	0.2	FACES	1	0.378162119283843	1	0	0	203
87.1044921875	0.2	SCRAMBLED	0	0.466202510860057	1	0	0	211
88.25439453125	0.2	FACES	1	0.44786608261802	1	0	0	219
89.48388671875	0.2	SCRAMBLED	0	0.382506260247737	1	0	0	227
90.55419921875	0.2	SCRAMBLED	0	0.372501334150911	1	0	0	235
91.7841796875	0.2	FACES	1	0.360439642036908	1	0	0	243
92.8837890625	0.2	SCRAMBLED	0	0.330213572844968	1	0	0	251
94.173828125	0.2	SCRAMBLED	0	0.417106352974315	1	0	0	259
95.423828125	0.2	FACES	1	0.380398784413501	1	0	0	267
96.65380859375	0.2	SCRAMBLED	0	0.398727968396088	1	0	0	275
98.00341796875	0.2	SCRAMBLED	0	0.421518710715191	1	0	0	283
99.21337890625	0.2	FACES	1	0.448435964367945	1	0	0	291
100.39306640625	0.2	FACES	1	0.335197925244302	1	0	0	299
101.56298828125	0.2	FACES	1	0.306185873210779	1	0	0	307
102.693359375	0.2	SCRAMBLED	0	0.404981877277351	1	0	0	315
103.8828125	0.2	FACES	1	0.426946170322481	1	0	0	323
105.0927734375	0.2	FACES	1	0.347676765969481	1	0	0	331
106.29296875	0.2	FACES	1	0.283487495200461	1	0	0	339
107.41259765625	0.2	SCRAMBLED	0	0.443086682395005	1	0	0	347
108.78271484375	0.2	SCRAMBLED	0	0.376137650589953	1	0	0	355
109.9326171875	0.2	SCRAMBLED	0	0.301954320113964	1	0	0	363
NaN	0.2	SCRAMBLED	0	0.332929264634913	1	1	0	NaN
NaN	0.2	SCRAMBLED	0	0.32569043830199	1	1	0	NaN
113.37255859375	0.2	SCRAMBLED	0	0.389532286457325	1	0	0	371
114.42236328125	0.2	SCRAMBLED	0	0.366511840742078	1	0	0	379
115.4921875	0.2	FACES	1	0.440455808809929	1	0	0	387
116.6220703125	0.2	SCRAMBLED	0	NaN	0	0	1	395
117.7421875	0.2	FACES	1	0.545048729718928	1	0	0	403
119.06201171875	0.2	FACES	1	0.367873459689235	1	0	0	411
120.19189453125	0.2	SCRAMBLED	0	0.365717990635403	1	0	0	419
121.24169921875	0.2	FACES	1	0.457569768256235	1	0	0	427
122.66162109375	0.2	FACES	1	0.28144944352016	1	0	0	435
123.7314453125	0.2	FACES	1	0.396238961559447	1	0	0	443
125.01123046875	0.2	SCRAMBLED	0	NaN	0	0	1	451
126.111328125	0.2	FACES	1	0.567943306424695	1	0	0	459
127.53125	0.2	FACES	1	0.36486950673816	1	0	0	467
128.63134765625	0.2	FACES	1	0.456656086023486	1	0	0	475
129.8310546875	0.2	SCRAMBLED	0	0.442468505581928	1	0	0	483
130.93115234375	0.2	FACES	1	0.580333103127032	1	0	0	491
132.1708984375	0.2	SCRAMBLED	0	0.35817249064894	1	0	0	499
133.27099609375	0.2	FACES	1	0.356952436606662	1	0	0	507
134.55078125	0.2	FACES	1	0.386886622508882	1	0	0	515
135.720703125	0.2	FACES	1	0.438723827094236	1	0	0	523
136.9404296875	0.2	SCRAMBLED	0	0.483548286611949	1	0	0	531
138.12060546875	0.2	SCRAMBLED	0	0.420445654772266	1	0	0	539
139.29052734375	0.2	FACES	1	0.412115963692031	1	0	0	547
140.4404296875	0.2	SCRAMBLED	0	0.521118223900885	1	0	0	555
141.77001953125	0.2	FACES	1	0.511683179553529	1	0	0	563
143.0302734375	0.2	FACES	1	0.39583479224666	1	0	0	571
144.27978515625	0.2	FACES	1	0.351605871230731	1	0	0	579
145.31005859375	0.2	SCRAMBLED	0	0.442518309866045	1	0	0	587
146.52978515625	0.2	SCRAMBLED	0	0.496331386237216	1	0	0	595
147.85986328125	0.2	FACES	1	0.354013983835557	1	0	0	603
149.0498046875	0.2	SCRAMBLED	0	0.423975118383169	1	0	0	611
150.3994140625	0.2	SCRAMBLED	0	NaN	0	0	1	619
151.5693359375	0.2	SCRAMBLED	0	0.378631185088125	1	0	0	627
152.74951171875	0.2	FACES	1	0.484462874377186	1	0	0	635
153.9892578125	0.2	FACES	1	0.462405009646773	1	0	0	643
155.13916015625	0.2	FACES	1	0.48723470917912	1	0	0	651
156.4990234375	0.2	SCRAMBLED	0	0.484119979426396	1	0	0	659
157.71875	0.2	SCRAMBLED	0	0.35290561212787	1	0	0	667
158.8388671875	0.2	SCRAMBLED	0	0.397670910193028	1	0	0	675
160.11865234375	0.2	SCRAMBLED	0	0.334688412323885	1	0	0	683
161.1884765625	0.2	SCRAMBLED	0	0.354682568621229	1	0	0	691
162.5087890625	0.2	FACES	1	0.38175346094522	1	0	0	699
163.75830078125	0.2	SCRAMBLED	0	0.386113599648525	1	0	0	707
165.07861328125	0.2	SCRAMBLED	0	0.294082526604143	1	0	0	715
166.078125	0.2	SCRAMBLED	0	0.5348017246165	1	0	0	724
167.2783203125	0.2	SCRAMBLED	0	0.587670934340622	1	0	0	732
168.578125	0.2	SCRAMBLED	0	0.387534078204226	1	0	0	740
169.828125	0.2	SCRAMBLED	0	0.318231869429383	1	0	0	748
170.81787109375	0.2	SCRAMBLED	0	0.438242989367609	1	0	0	758
171.927734375	0.2	FACES	1	0.34704138404004	1	0	0	766
173.2177734375	0.2	FACES	1	0.678858352993302	1	0	0	774
174.69775390625	0.2	FACES	1	NaN	0	0	1	782
175.8173828125	0.2	FACES	1	0.462592454862261	1	0	0	790
177.0673828125	0.2	FACES	1	0.398061194674938	1	0	0	798
178.3173828125	0.2	FACES	1	0.333413120803016	1	0	0	806
179.4072265625	0.2	SCRAMBLED	0	0.460149932024706	1	0	0	814
180.51708984375	0.2	FACES	1	0.451956976342444	1	0	0	822
181.67724609375	0.2	FACES	1	0.382980457402482	1	0	0	830
182.97705078125	0.2	FACES	1	0.334648870740693	1	0	0	838
184.22705078125	0.2	FACES	1	0.424266397984866	1	0	0	846
185.57666015625	0.2	SCRAMBLED	0	0.5133436242063	1	0	0	854
186.82666015625	0.2	SCRAMBLED	0	0.582143262476166	1	0	0	862
188.32666015625	0.2	SCRAMBLED	0	0.549962752432293	1	0	0	869
189.61669921875	0.2	FACES	1	0.436824321877339	1	0	0	877
190.896484375	0.2	FACES	1	0.423631619743901	1	0	0	885
192.21630859375	0.2	FACES	1	0.356467674906526	1	0	0	893
193.34619140625	0.2	FACES	1	0.388272087143832	1	0	0	901
194.416015625	0.2	FACES	1	0.368229333938871	1	0	0	909
195.51611328125	0.2	FACES	1	0.355087039778482	1	0	0	917
196.5859375	0.2	SCRAMBLED	0	0.455933772979279	1	0	0	925
197.8359375	0.2	SCRAMBLED	0	0.39490209383257	1	0	0	933
199.0556640625	0.2	FACES	1	0.418625232721752	1	0	0	941
200.28564453125	0.2	SCRAMBLED	0	0.449409109897715	1	0	0	949
201.3857421875	0.2	FACES	1	0.503279536657374	1	0	0	957
202.65576171875	0.2	SCRAMBLED	0	0.397163510181599	1	0	0	965
203.83544921875	0.2	SCRAMBLED	0	0.413996452727588	1	0	0	973
205.1552734375	0.2	FACES	1	0.373882271123421	1	0	0	981
206.1953125	0.2	FACES	1	0.392733041792326	1	0	0	989
207.30517578125	0.2	FACES	1	0.307522137250089	1	0	0	997
208.35498046875	0.2	SCRAMBLED	0	0.474863626814567	1	0	0	1005
209.64501953125	0.2	FACES	1	0.371245662499405	1	0	0	1013
210.77490234375	0.2	SCRAMBLED	0	NaN	0	0	1	1021
211.9248046875	0.2	SCRAMBLED	0	0.417932500404277	1	0	0	1029
213.0947265625	0.2	FACES	1	0.422768345483746	1	0	0	1037
214.31494140625	0.2	SCRAMBLED	0	0.324693748928439	1	0	0	1045
215.5947265625	0.2	SCRAMBLED	0	0.299440863901964	1	0	0	1053
216.5947265625	0.2	SCRAMBLED	0	0.376398142088874	1	0	0	1062
217.654296875	0.2	FACES	1	0.53994575257002	1	0	0	1070
218.91455078125	0.2	SCRAMBLED	0	0.492074176388087	1	0	0	1078
220.30419921875	0.2	FACES	1	0.518908121056484	1	0	0	1086
221.75390625	0.2	FACES	1	0.365673015857737	1	0	0	1094
223.05419921875	0.2	FACES	1	0.444597412350504	1	0	0	1102
224.43408203125	0.2	SCRAMBLED	0	0.450412137998228	1	0	0	1110
225.82373046875	0.2	SCRAMBLED	0	0.300230488190664	1	0	0	1118
227.00390625	0.2	FACES	1	0.353150105886925	1	0	0	1126
228.173828125	0.2	SCRAMBLED	0	0.370864131497456	1	0	0	1134
229.29345703125	0.2	FACES	1	0.450718509807757	1	0	0	1142
230.41357421875	0.2	SCRAMBLED	0	0.442614899993259	1	0	0	1150
231.7734375	0.2	SCRAMBLED	0	0.303383552150535	1	0	0	1158
232.9130859375	0.2	SCRAMBLED	0	0.336399868637727	1	0	0	1166
246.40234375	0.2	FACES	1	0.4692357426934	1	0	0	1170
247.55224609375	0.2	FACES	1	0.316198647255533	1	0	0	1178
248.6220703125	0.2	FACES	1	0.282230012484433	1	0	0	1186
249.6220703125	0.2	SCRAMBLED	0	0.398141787061832	1	0	0	1195
250.7119140625	0.2	FACES	1	0.437976159142181	1	0	0	1203
251.91162109375	0.2	SCRAMBLED	0	0.367840860521483	1	0	0	1211
253.181640625	0.2	FACES	1	0.353659015118865	1	0	0	1219
254.41162109375	0.2	SCRAMBLED	0	0.342292470074881	1	0	0	1227
255.6416015625	0.2	SCRAMBLED	0	0.29435509186942	1	0	0	1235
256.6513671875	0.2	FACES	1	0.38119233267571	1	0	0	1243
257.681640625	0.2	FACES	1	NaN	0	0	1	1251
258.8515625	0.2	FACES	1	NaN	0	0	1	1259
260.01123046875	0.2	FACES	1	0.366816703330642	1	0	0	1267
261.28125	0.2	SCRAMBLED	0	0.490386263918026	1	0	0	1275
262.62109375	0.2	FACES	1	0.386998908531496	1	0	0	1283
263.78076171875	0.2	SCRAMBLED	0	0.484286899239578	1	0	0	1291
265.140625	0.2	SCRAMBLED	0	0.389153170208829	1	0	0	1299
266.19091796875	0.2	SCRAMBLED	0	0.357933128240347	1	0	0	1307
267.4208984375	0.2	FACES	1	0.338823375293941	1	0	0	1315
268.49072265625	0.2	SCRAMBLED	0	0.502608838962715	1	0	0	1323
269.74072265625	0.2	SCRAMBLED	0	0.472610662101033	1	0	0	1331
270.87060546875	0.2	FACES	1	0.411284684910697	1	0	0	1339
272.09033203125	0.2	SCRAMBLED	0	0.357164029353953	1	0	0	1347
273.23046875	0.2	FACES	1	0.499073640312872	1	0	0	1355
274.51025390625	0.2	SCRAMBLED	0	0.440658044387874	1	0	0	1363
NaN	0.2	FACES	1	0.342577410949616	1	1	0	NaN
276.830078125	0.2	SCRAMBLED	0	0.318654451235034	1	0	0	1371
277.90966796875	0.2	FACES	1	0.288332697448368	1	0	0	1379
279.15966796875	0.2	SCRAMBLED	0	0.298390144426321	1	0	0	1387
280.24951171875	0.2	FACES	1	0.396177687197905	1	0	0	1395
281.49951171875	0.2	FACES	1	0.373969805926663	1	0	0	1403
282.76953125	0.2	SCRAMBLED	0	NaN	0	0	1	1411
283.8896484375	0.2	FACES	1	0.496692391837314	1	0	0	1419
285.1494140625	0.2	FACES	1	0.422512985335288	1	0	0	1427
286.24951171875	0.2	FACES	1	0.377469085122357	1	0	0	1435
287.51904296875	0.2	SCRAMBLED	0	NaN	0	0	1	1443
288.6689453125	0.2	FACES	1	0.420104570886451	1	0	0	1451
289.93896484375	0.2	SCRAMBLED	0	0.462120370616049	1	0	0	1459
291.23876953125	0.2	SCRAMBLED	0	NaN	0	0	1	1467
292.37890625	0.2	FACES	1	0.481542532254934	1	0	0	1475
293.6787109375	0.2	FACES	1	0.378485696209282	1	0	0	1483
294.78857421875	0.2	SCRAMBLED	0	0.460320172123375	1	0	0	1491
296.1484375	0.2	SCRAMBLED	0	0.342156942052952	1	0	0	1499
297.3984375	0.2	FACES	1	0.423928030696516	1	0	0	1507
298.6484375	0.2	SCRAMBLED	0	0.454892108828062	1	0	0	1515
299.79833984375	0.2	FACES	1	0.636664163372188	1	0	0	1523
301.16796875	0.2	FACES	1	0.506474255108969	1	0	0	1531
302.328125	0.2	SCRAMBLED	0	0.427407991866858	1	0	0	1539
303.677734375	0.2	FACES	1	0.368113425786305	1	0	0	1547
304.93798828125	0.2	FACES	1	0.378992190688223	1	0	0	1555
306.28759765625	0.2	SCRAMBLED	0	0.489928064502692	1	0	0	1563
307.44775390625	0.2	FACES	1	0.437695444084966	1	0	0	1571
308.8173828125	0.2	SCRAMBLED	0	0.364443302802556	1	0	0	1579
309.96728515625	0.2	SCRAMBLED	0	0.404373359477177	1	0	0	1587
311.1572265625	0.2	SCRAMBLED	0	0.313106253969181	1	0	0	1595
312.4375	0.2	FACES	1	0.282080901475638	1	0	0	1603
313.45703125	0.2	FACES	1	0.426895158661409	1	0	0	1611
314.75732421875	0.2	FACES	1	0.278650442744947	1	0	0	1619
315.9970703125	0.2	FACES	1	0.292499354053234	1	0	0	1627
317.20703125	0.2	FACES	1	0.278506161242603	1	0	0	1635
318.22705078125	0.2	FACES	1	0.447195083079805	1	0	0	1643
319.32666015625	0.2	FACES	1	0.282360107311433	1	0	0	1651
320.27685546875	0.2	FACES	1	0.252323898087525	1	0	0	1661
321.37646484375	0.2	FACES	1	0.303957056029503	1	0	0	1669
322.4267578125	0.2	SCRAMBLED	0	NaN	0	0	1	1677
323.486328125	0.2	FACES	1	0.382674387437419	1	0	0	1685
324.83642578125	0.2	SCRAMBLED	0	0.42940016323746	1	0	0	1693
326.166015625	0.2	SCRAMBLED	0	0.319193243037716	1	0	0	1701
327.1962890625	0.2	FACES	1	0.432117967936847	1	0	0	1709
328.3359375	0.2	SCRAMBLED	0	0.366914500834355	1	0	0	1717
329.56591796875	0.2	SCRAMBLED	0	0.347815614276897	1	0	0	1725
330.7060546875	0.2	SCRAMBLED	0	0.37385902912456	1	0	0	1733
332.02587890625	0.2	SCRAMBLED	0	0.321840114362658	1	0	0	1741
333.27587890625	0.2	FACES	1	0.467191352286136	1	0	0	1749
334.42578125	0.2	FACES	1	0.567200467979546	1	0	0	1757
335.9453125	0.2	SCRAMBLED	0	NaN	0	0	1	1763
336.9052734375	0.2	FACES	1	0.461891874597313	1	0	0	1773
338.0751953125	0.2	SCRAMBLED	0	NaN	0	0	1	1781
339.29541015625	0.2	SCRAMBLED	0	0.447648151144222	1	0	0	1789
340.42529296875	0.2	SCRAMBLED	0	0.34344792947013	1	0	0	1797
341.5751953125	0.2	FACES	1	0.653316301274117	1	0	0	1805
343.134765625	0.2	FACES	1	0.332968504374549	1	0	0	1811
344.31494140625	0.2	FACES	1	0.363870704456076	1	0	0	1819
345.5146484375	0.2	SCRAMBLED	0	0.412870875903536	1	0	0	1827
346.8447265625	0.2	SCRAMBLED	0	0.357400071476604	1	0	0	1835
347.86474609375	0.2	SCRAMBLED	0	0.397845677953683	1	0	0	1843
348.95458984375	0.2	FACES	1	0.426413415402749	1	0	0	1851
350.33447265625	0.2	FACES	1	0.643046054172373	1	0	0	1859
351.63427734375	0.2	SCRAMBLED	0	0.366962192209485	1	0	0	1867
352.734375	0.2	SCRAMBLED	0	0.341879245438122	1	0	0	1875
353.744140625	0.2	SCRAMBLED	0	0.347665295891602	1	0	0	1883
354.8740234375	0.2	FACES	1	0.248588878612736	1	0	0	1891
355.80419921875	0.2	SCRAMBLED	0	NaN	0	0	1	1901
357.0537109375	0.2	FACES	1	NaN	0	0	1	1909
358.45361328125	0.2	FACES	1	0.493039775814395	1	0	0	1917
359.8134765625	0.2	FACES	1	0.331918086742462	1	0	0	1925
360.99365234375	0.2	FACES	1	0.373784171775696	1	0	0	1933
362.263671875	0.2	FACES	1	0.368676968808813	1	0	0	1941
363.513671875	0.2	SCRAMBLED	0	0.524450885127408	1	0	0	1949
364.8935546875	0.2	SCRAMBLED	0	0.358356313734475	1	0	0	1957
365.9130859375	0.2	FACES	1	0.540946667761546	1	0	0	1965
367.38330078125	0.2	SCRAMBLED	0	0.475095443119244	1	0	0	1973
368.61328125	0.2	SCRAMBLED	0	0.407842756103037	1	0	0	1981
369.78271484375	0.2	FACES	1	0.482683201286818	1	0	0	1989
370.98291015625	0.2	FACES	1	0.422608669930014	1	0	0	1997
372.2529296875	0.2	FACES	1	0.533386981099738	1	0	0	2005
373.57275390625	0.2	SCRAMBLED	0	0.404120112237706	1	0	0	2013
374.8828125	0.2	SCRAMBLED	0	0.35882055003276	1	0	0	2021
376.142578125	0.2	SCRAMBLED	0	0.394917487883959	1	0	0	2029
377.4423828125	0.2	FACES	1	0.483685625698399	1	0	0	2037
378.59228515625	0.2	SCRAMBLED	0	0.547464086583204	1	0	0	2045
380.06201171875	0.2	FACES	1	0.478402145749897	1	0	0	2053
381.22216796875	0.2	SCRAMBLED	0	0.553084424600456	1	0	0	2061
382.61181640625	0.2	FACES	1	0.409046510560984	1	0	0	2069
383.73193359375	0.2	FACES	1	0.401740674826669	1	0	0	2077
385.06201171875	0.2	FACES	1	0.308718647448586	1	0	0	2085
386.23193359375	0.2	SCRAMBLED	0	0.459567372821311	1	0	0	2093
387.3515625	0.2	SCRAMBLED	0	0.458897580659141	1	0	0	2101
388.5615234375	0.2	FACES	1	0.479303452372733	1	0	0	2109
389.931640625	0.2	SCRAMBLED	0	0.534086052144175	1	0	0	2117
391.13134765625	0.2	FACES	1	0.603325175492046	1	0	0	2125
392.50146484375	0.2	SCRAMBLED	0	0.504447371662081	1	0	0	2133
393.97119140625	0.2	SCRAMBLED	0	0.428629555130101	1	0	0	2141
395.201171875	0.2	FACES	1	0.432434300602836	1	0	0	2149
396.451171875	0.2	FACES	1	NaN	0	0	1	2157
397.77099609375	0.2	SCRAMBLED	0	0.364105539202228	1	0	0	2165
398.970703125	0.2	SCRAMBLED	0	0.414932169583153	1	0	0	2173
400.220703125	0.2	SCRAMBLED	0	0.364833285440909	1	0	0	2181
401.560546875	0.2	SCRAMBLED	0	0.599633923418423	1	0	0	2189
403.0302734375	0.2	FACES	1	0.397588204896692	1	0	0	2197
404.14013671875	0.2	SCRAMBLED	0	0.508392172819185	1	0	0	2205
405.39013671875	0.2	SCRAMBLED	0	0.460124577116403	1	0	0	2213
406.51025390625	0.2	SCRAMBLED	0	0.387902328063319	1	0	0	2221
407.830078125	0.2	FACES	1	0.308897037339193	1	0	0	2229
408.8798828125	0.2	SCRAMBLED	0	0.492637115722573	1	0	0	2237
410.25	0.2	FACES	1	0.40846696979861	1	0	0	2245
411.4697265625	0.2	FACES	1	0.473363763248017	1	0	0	2253
412.599609375	0.2	SCRAMBLED	0	0.458222657146052	1	0	0	2261
413.81982421875	0.2	FACES	1	0.401979131703229	1	0	0	2269
415.08935546875	0.2	SCRAMBLED	0	0.438917007348209	1	0	0	2277
416.44921875	0.2	SCRAMBLED	0	0.374695439255447	1	0	0	2285
417.69921875	0.2	FACES	1	0.428321975944527	1	0	0	2293
418.939453125	0.2	FACES	1	0.493220580458456	1	0	0	2301
420.109375	0.2	SCRAMBLED	0	0.518123326274235	1	0	0	2309
421.50927734375	0.2	SCRAMBLED	0	0.525066345343475	1	0	0	2317
422.8388671875	0.2	SCRAMBLED	0	0.459754818036345	1	0	0	2325
423.98876953125	0.2	SCRAMBLED	0	0.402820975029044	1	0	0	2333
425.18896484375	0.2	SCRAMBLED	0	0.399509744736406	1	0	0	2341
426.32861328125	0.2	FACES	1	0.477393382609989	1	0	0	2349
427.6083984375	0.2	SCRAMBLED	0	0.448125366740896	1	0	0	2357
440.4677734375	0.2	FACES	1	0.302215717145373	1	0	0	2361
441.65771484375	0.2	FACES	1	0.308458155949211	1	0	0	2369
442.70751953125	0.2	FACES	1	0.377346234554807	1	0	0	2377
443.9072265625	0.2	SCRAMBLED	0	0.393171319493831	1	0	0	2385
445.18701171875	0.2	SCRAMBLED	0	NaN	0	0	1	2393
446.42724609375	0.2	FACES	1	0.393881558771227	1	0	0	2401
447.47705078125	0.2	FACES	1	0.432562282521303	1	0	0	2409
448.64697265625	0.2	SCRAMBLED	0	0.542462529067961	1	0	0	2417
450.0068359375	0.2	FACES	1	0.418427826649804	1	0	0	2425
451.1669921875	0.2	FACES	1	0.337187380016985	1	0	0	2433
452.37646484375	0.2	FACES	1	0.319127139169723	1	0	0	2441
453.44677734375	0.2	SCRAMBLED	0	0.44292308286731	1	0	0	2449
454.8466796875	0.2	SCRAMBLED	0	0.367977294075899	1	0	0	2457
456.03662109375	0.2	SCRAMBLED	0	0.428602087312811	1	0	0	2465
457.26611328125	0.2	SCRAMBLED	0	0.329486128450299	1	0	0	2473
458.30615234375	0.2	FACES	1	0.432375440994292	1	0	0	2481
459.56640625	0.2	FACES	1	0.379124700268676	1	0	0	2489
460.80615234375	0.2	FACES	1	0.333834495232168	1	0	0	2497
462.0361328125	0.2	SCRAMBLED	0	0.428904233303456	1	0	0	2505
463.40576171875	0.2	SCRAMBLED	0	0.294642145653143	1	0	0	2513
464.53564453125	0.2	SCRAMBLED	0	0.333618072978879	1	0	0	2521
465.77587890625	0.2	FACES	1	0.463431279746601	1	0	0	2529
467.0556640625	0.2	SCRAMBLED	0	0.498182596390961	1	0	0	2537
468.4453125	0.2	SCRAMBLED	0	0.424917475810162	1	0	0	2545
469.74560546875	0.2	SCRAMBLED	0	0.312849686444224	1	0	0	2553
470.97509765625	0.2	FACES	1	0.473758877236378	1	0	0	2561
472.22509765625	0.2	FACES	1	0.378502901325646	1	0	0	2569
473.46533203125	0.2	SCRAMBLED	0	NaN	0	0	1	2577
474.73486328125	0.2	SCRAMBLED	0	0.387125984917475	1	0	0	2585
476.044921875	0.2	SCRAMBLED	0	0.403077542554001	1	0	0	2593
477.4150390625	0.2	FACES	1	0.442883239439652	1	0	0	2601
478.56494140625	0.2	FACES	1	0.642716138519972	1	0	0	2609
479.91455078125	0.2	FACES	1	0.401466902185803	1	0	0	2617
481.11474609375	0.2	FACES	1	0.333433344360401	1	0	0	2625
482.33447265625	0.2	FACES	1	0.318218588286982	1	0	0	2633
483.37451171875	0.2	SCRAMBLED	0	0.468058852364265	1	0	0	2641
484.734375	0.2	FACES	1	0.413623977050065	1	0	0	2649
485.80419921875	0.2	FACES	1	0.412471234252735	1	0	0	2657
487.05419921875	0.2	SCRAMBLED	0	0.444483013418449	1	0	0	2665
488.40380859375	0.2	SCRAMBLED	0	0.40947784584705	1	0	0	2673
489.77392578125	0.2	FACES	1	0.393509083093704	1	0	0	2681
491.013671875	0.2	SCRAMBLED	0	0.463049446901096	1	0	0	2689
492.263671875	0.2	FACES	1	0.478928863786223	1	0	0	2697
493.59375	0.2	SCRAMBLED	0	NaN	0	0	1	2705
494.61328125	0.2	FACES	1	0.548597813199649	1	0	0	2713
496.13330078125	0.2	SCRAMBLED	0	0.46840295469201	1	0	0	2719
497.25341796875	0.2	SCRAMBLED	0	0.39840891913218	1	0	0	2727
498.61328125	0.2	SCRAMBLED	0	0.349145841432801	1	0	0	2735
499.76318359375	0.2	SCRAMBLED	0	0.378910692768386	1	0	0	2743
501.06298828125	0.2	SCRAMBLED	0	0.349837668217788	1	0	0	2751
502.32275390625	0.2	SCRAMBLED	0	0.309459674829213	1	0	0	2759
503.32275390625	0.2	SCRAMBLED	0	0.382585947102143	1	0	0	2768
504.6728515625	0.2	SCRAMBLED	0	0.299416112682138	1	0	0	2776
505.72265625	0.2	FACES	1	0.371072102115249	1	0	0	2784
506.82275390625	0.2	SCRAMBLED	0	0.483110914442932	1	0	0	2792
508.0224609375	0.2	FACES	1	0.501784804441286	1	0	0	2800
509.46240234375	0.2	FACES	1	0.318821672892682	1	0	0	2808
510.46240234375	0.2	FACES	1	0.437676427903625	1	0	0	2817
511.6123046875	0.2	SCRAMBLED	0	0.468423480093861	1	0	0	2825
512.81201171875	0.2	FACES	1	0.437113186725583	1	0	0	2833
514.0419921875	0.2	FACES	1	0.353158255678863	1	0	0	2841
515.23193359375	0.2	FACES	1	0.32897027680292	1	0	0	2849
516.4619140625	0.2	SCRAMBLED	0	0.539835881300405	1	0	0	2857
517.95166015625	0.2	FACES	1	0.428612651857748	1	0	0	2865
519.33154296875	0.2	FACES	1	NaN	0	0	1	2873
520.4013671875	0.2	FACES	1	0.538352619161742	1	0	0	2881
521.70166015625	0.2	SCRAMBLED	0	0.428799493384759	1	0	0	2889
523.08154296875	0.2	SCRAMBLED	0	0.318042914993384	1	0	0	2897
524.12109375	0.2	SCRAMBLED	0	0.677909354995336	1	0	0	2905
525.59130859375	0.2	FACES	1	0.558635338463773	1	0	0	2913
526.951171875	0.2	FACES	1	0.41259287744424	1	0	0	2921
528.14111328125	0.2	SCRAMBLED	0	0.454409761881379	1	0	0	2929
529.31103515625	0.2	SCRAMBLED	0	0.388173987796108	1	0	0	2937
530.57080078125	0.2	FACES	1	0.409021155652681	1	0	0	2945
531.810546875	0.2	SCRAMBLED	0	0.519843536068038	1	0	0	2953
533.060546875	0.2	SCRAMBLED	0	0.602726618548331	1	0	0	2961
534.63037109375	0.2	SCRAMBLED	0	0.318442254800175	1	0	0	2967
535.79052734375	0.2	SCRAMBLED	0	0.39934614520871	1	0	0	2975
537.16015625	0.2	SCRAMBLED	0	0.359133562413263	1	0	0	2983
538.25	0.2	FACES	1	0.417074961182607	1	0	0	2991
539.60009765625	0.2	FACES	1	0.468861154107344	1	0	0	2999
540.97998046875	0.2	SCRAMBLED	0	0.458652785055619	1	0	0	3007
542.330078125	0.2	SCRAMBLED	0	0.363596328126278	1	0	0	3015
543.349609375	0.2	SCRAMBLED	0	0.367433370923209	1	0	0	3023
544.4296875	0.2	SCRAMBLED	0	0.378272896085946	1	0	0	3031
545.7197265625	0.2	SCRAMBLED	0	0.289133791814493	1	0	0	3039
546.86962890625	0.2	FACES	1	0.383976543087556	1	0	0	3047
548.04931640625	0.2	FACES	1	0.323883599237888	1	0	0	3055
549.189453125	0.2	SCRAMBLED	0	0.469463936868578	1	0	0	3063
550.3193359375	0.2	SCRAMBLED	0	0.368624447927232	1	0	0	3071
551.5693359375	0.2	FACES	1	0.598365876157004	1	0	0	3079
553.05908203125	0.2	SCRAMBLED	0	0.533501681875805	1	0	0	3087
554.27880859375	0.2	FACES	1	0.416767683841499	1	0	0	3095
555.47900390625	0.2	SCRAMBLED	0	0.414833164703396	1	0	0	3103
556.72900390625	0.2	SCRAMBLED	0	0.554688424397682	1	0	0	3111
557.95849609375	0.2	FACES	1	0.37757865454796	1	0	0	3119
559.298828125	0.2	SCRAMBLED	0	0.499388463757896	1	0	0	3127
560.5185546875	0.2	FACES	1	0.551184315695082	1	0	0	3135
561.86865234375	0.2	FACES	1	0.254062822218657	1	0	0	3143
563.0283203125	0.2	SCRAMBLED	0	0.419885432035699	1	0	0	3151
564.09814453125	0.2	FACES	1	0.39148340702377	1	0	0	3159
565.39794921875	0.2	FACES	1	NaN	0	0	1	3167
566.3681640625	0.2	SCRAMBLED	0	0.412399999033823	1	0	0	3177
567.44775390625	0.2	FACES	1	0.38233058695414	1	0	0	3185
568.65771484375	0.2	FACES	1	0.568113244679807	1	0	0	3193
569.93798828125	0.2	FACES	1	0.372044342112531	1	0	0	3201
570.9677734375	0.2	SCRAMBLED	0	0.40787112945236	1	0	0	3209
572.1376953125	0.2	SCRAMBLED	0	0.477633046863048	1	0	0	3217
573.4375	0.2	FACES	1	0.578446275363603	1	0	0	3225
574.7373046875	0.2	SCRAMBLED	0	0.387351160651178	1	0	0	3233
576.05712890625	0.2	FACES	1	0.457969711751048	1	0	0	3241
577.22705078125	0.2	SCRAMBLED	0	0.428829375955047	1	0	0	3249
578.59716796875	0.2	SCRAMBLED	0	NaN	0	0	1	3257
579.546875	0.2	FACES	1	0.481309508573759	1	0	0	3267
580.876953125	0.2	FACES	1	0.263592645627796	1	0	0	3275
582.07666015625	0.2	FACES	1	0.308416199613021	1	0	0	3283
583.216796875	0.2	FACES	1	0.318227643611408	1	0	0	3291
584.19677734375	0.2	FACES	1	0.541120831834178	1	0	0	3301
585.646484375	0.2	SCRAMBLED	0	0.378965326558955	1	0	0	3309
586.6865234375	0.2	FACES	1	0.372911540347104	1	0	0	3317
587.83642578125	0.2	FACES	1	0.458719190768079	1	0	0	3325
589.20654296875	0.2	SCRAMBLED	0	0.348553925060514	1	0	0	3333
590.416015625	0.2	SCRAMBLED	0	0.379388512053083	1	0	0	3341
591.7060546875	0.2	FACES	1	0.363120319906557	1	0	0	3349
592.755859375	0.2	FACES	1	0.357107886342419	1	0	0	3357
594.0361328125	0.2	SCRAMBLED	0	0.31369605743248	1	0	0	3365
595.23583984375	0.2	FACES	1	0.308594891348548	1	0	0	3373
596.3759765625	0.2	SCRAMBLED	0	0.324902926922277	1	0	0	3381
597.6455078125	0.2	FACES	1	0.287409658046727	1	0	0	3389
598.70556640625	0.2	SCRAMBLED	0	0.403351617039334	1	0	0	3397
599.99560546875	0.2	SCRAMBLED	0	NaN	0	0	1	3405
601.12548828125	0.2	FACES	1	0.368910596178466	1	0	0	3413
602.275390625	0.2	FACES	1	0.378916427807326	1	0	0	3421
603.615234375	0.2	FACES	1	0.373626307286941	1	0	0	3429
604.6650390625	0.2	SCRAMBLED	0	0.43357527147873	1	0	0	3437
605.8349609375	0.2	FACES	1	0.427419461944737	1	0	0	3445
606.9150390625	0.2	FACES	1	0.462166552770668	1	0	0	3453
608.11474609375	0.2	SCRAMBLED	0	0.532927272463439	1	0	0	3461
609.3349609375	0.2	SCRAMBLED	0	0.632932766027352	1	0	0	3469
610.634765625	0.2	SCRAMBLED	0	0.397420077706556	1	0	0	3477
611.70458984375	0.2	SCRAMBLED	0	0.298459568580256	1	0	0	3485
612.70458984375	0.2	FACES	1	0.562545427544137	1	0	0	3494
614.17431640625	0.2	FACES	1	0.293392510884132	1	0	0	3502
615.2841796875	0.2	FACES	1	0.378150347362407	1	0	0	3510
616.55419921875	0.2	FACES	1	0.309023811880706	1	0	0	3518
617.55419921875	0.2	SCRAMBLED	0	0.522870429173963	1	0	0	3527
618.84423828125	0.2	SCRAMBLED	0	0.427722815312336	1	0	0	3535
619.923828125	0.2	FACES	1	0.520604183318483	1	0	0	3543
621.4140625	0.2	SCRAMBLED	0	0.498411394254163	1	0	0	3551
622.56396484375	0.2	FACES	1	0.431884944255671	1	0	0	3559
633.90283203125	0.2	FACES	1	0.331421251276879	1	0	0	3563
635.1328125	0.2	SCRAMBLED	0	0.388614378406601	1	0	0	3571
636.392578125	0.2	FACES	1	0.453394660014965	1	0	0	3579
637.552734375	0.2	FACES	1	0.442347767922911	1	0	0	3587
638.72265625	0.2	SCRAMBLED	0	0.853058043421697	1	0	0	3595
640.49267578125	0.2	FACES	1	0.512057466296028	1	0	0	3600
641.9423828125	0.2	SCRAMBLED	0	0.413716643203315	1	0	0	3608
643.29248046875	0.2	SCRAMBLED	0	0.51362283004255	1	0	0	3616
644.58203125	0.2	FACES	1	0.468352848563427	1	0	0	3624
645.76220703125	0.2	FACES	1	0.371299390757486	1	0	0	3632
647.0419921875	0.2	SCRAMBLED	0	0.248128264444404	1	0	0	3640
648.20166015625	0.2	SCRAMBLED	0	0.398928392909511	1	0	0	3648
649.31201171875	0.2	FACES	1	0.542829873394567	1	0	0	3656
650.76171875	0.2	SCRAMBLED	0	0.458652483211154	1	0	0	3664
652.03173828125	0.2	FACES	1	0.453058707479158	1	0	0	3672
653.33154296875	0.2	FACES	1	0.412293749894161	1	0	0	3680
654.72119140625	0.2	SCRAMBLED	0	0.449119037672517	1	0	0	3688
656.021484375	0.2	FACES	1	0.673934369423478	1	0	0	3696
657.6513671875	0.2	SCRAMBLED	0	0.479770103424016	1	0	0	3702
658.791015625	0.2	FACES	1	0.49256376759422	1	0	0	3710
659.94091796875	0.2	FACES	1	0.392390448685092	1	0	0	3718
661.291015625	0.2	SCRAMBLED	0	NaN	0	0	1	3726
662.390625	0.2	SCRAMBLED	0	0.392831442984061	1	0	0	3734
663.49072265625	0.2	FACES	1	0.493260122041647	1	0	0	3742
664.9306640625	0.2	FACES	1	0.417668688619869	1	0	0	3750
666.03076171875	0.2	FACES	1	0.447681655844917	1	0	0	3758
667.23046875	0.2	SCRAMBLED	0	0.528641991108543	1	0	0	3766
668.46044921875	0.2	FACES	1	0.402374849380067	1	0	0	3774
669.55029296875	0.2	FACES	1	0.467085103146019	1	0	0	3782
670.88037109375	0.2	SCRAMBLED	0	0.989928064502692	1	0	0	3790
672.5498046875	0.2	SCRAMBLED	0	0.511817802043424	1	0	0	3796
673.7998046875	0.2	FACES	1	0.446395497934191	1	0	0	3804
674.98974609375	0.2	FACES	1	0.977356255780705	1	0	0	3812
676.61962890625	0.2	FACES	1	0.413345978590769	1	0	0	3818
677.689453125	0.2	FACES	1	0.40309293660539	1	0	0	3826
678.759765625	0.2	FACES	1	0.39206174040919	1	0	0	3834
679.90966796875	0.2	SCRAMBLED	0	0.516722769432363	1	0	0	3842
681.21923828125	0.2	FACES	1	0.423682631404972	1	0	0	3850
682.45947265625	0.2	SCRAMBLED	0	0.479370763617226	1	0	0	3858
683.68896484375	0.2	FACES	1	0.47235681117354	1	0	0	3866
684.87890625	0.2	SCRAMBLED	0	0.45821752579559	1	0	0	3874
686.18896484375	0.2	FACES	1	0.545126303664802	1	0	0	3882
687.64892578125	0.2	SCRAMBLED	0	0.460611149881515	1	0	0	3890
688.94873046875	0.2	SCRAMBLED	0	0.442652932355486	1	0	0	3898
690.15869140625	0.2	FACES	1	0.658320273543268	1	0	0	3906
691.728515625	0.2	SCRAMBLED	0	0.499278592488736	1	0	0	3912
692.99853515625	0.2	FACES	1	0.511108166454051	1	0	0	3920
694.16845703125	0.2	SCRAMBLED	0	0.508138020047227	1	0	0	3928
695.6181640625	0.2	SCRAMBLED	0	NaN	0	0	1	3936
696.84814453125	0.2	SCRAMBLED	0	0.40858710376915	1	0	0	3944
698.14794921875	0.2	FACES	1	0.48863194573596	1	0	0	3952
699.51806640625	0.2	SCRAMBLED	0	0.364325281741458	1	0	0	3960
700.66796875	0.2	FACES	1	0.519123335933273	1	0	0	3968
701.837890625	0.2	FACES	1	0.391751746470163	1	0	0	3976
703.177734375	0.2	SCRAMBLED	0	0.553827866734537	1	0	0	3984
704.40771484375	0.2	SCRAMBLED	0	0.502599783638288	1	0	0	3992
705.7275390625	0.2	SCRAMBLED	0	0.4196110557059	1	0	0	4000
706.87744140625	0.2	SCRAMBLED	0	0.522754219177386	1	0	0	4008
708.29736328125	0.2	FACES	1	0.567060714139188	1	0	0	4016
709.70703125	0.2	FACES	1	0.524065128307939	1	0	0	4024
711.02734375	0.2	SCRAMBLED	0	0.613880967157002	1	0	0	4032
712.56689453125	0.2	SCRAMBLED	0	0.484660280449589	1	0	0	4038
713.94677734375	0.2	SCRAMBLED	0	0.283530055225583	1	0	0	4046
714.98681640625	0.2	FACES	1	0.472325721226753	1	0	0	4054
716.146484375	0.2	SCRAMBLED	0	0.492007468831616	1	0	0	4062
717.5966796875	0.2	SCRAMBLED	0	0.419054455098831	1	0	0	4070
718.6865234375	0.2	SCRAMBLED	0	0.557849034461015	1	0	0	4078
720.06640625	0.2	FACES	1	0.418679262824298	1	0	0	4086
721.31640625	0.2	SCRAMBLED	0	0.443594686094002	1	0	0	4094
722.4560546875	0.2	SCRAMBLED	0	0.513206586963861	1	0	0	4102
723.8359375	0.2	FACES	1	0.458336452389631	1	0	0	4110
725.2060546875	0.2	SCRAMBLED	0	0.58011275689978	1	0	0	4118
726.57568359375	0.2	SCRAMBLED	0	0.47513196626096	1	0	0	4126
727.845703125	0.2	SCRAMBLED	0	0.643685360076233	1	0	0	4134
729.16552734375	0.2	FACES	1	NaN	0	0	1	4142
730.42578125	0.2	FACES	1	0.719323881184664	1	0	0	4150
731.99560546875	0.2	FACES	1	0.367266451109572	1	0	0	4156
733.16552734375	0.2	SCRAMBLED	0	0.560070305538829	1	0	0	4164
734.4853515625	0.2	SCRAMBLED	0	0.508110854074403	1	0	0	4172
735.88525390625	0.2	FACES	1	NaN	0	0	1	4180
737.28515625	0.2	SCRAMBLED	0	0.388441421710013	1	0	0	4188
738.35498046875	0.2	SCRAMBLED	0	0.362596016623229	1	0	0	4196
739.61474609375	0.2	FACES	1	0.482141994731137	1	0	0	4204
740.93505859375	0.2	SCRAMBLED	0	0.464066661676497	1	0	0	4212
742.15478515625	0.2	FACES	1	0.512864295701092	1	0	0	4220
743.3544921875	0.2	SCRAMBLED	0	0.48161799329182	1	0	0	4228
744.5244140625	0.2	FACES	1	0.467556583703754	1	0	0	4236
745.95458984375	0.2	SCRAMBLED	0	0.497395085011249	1	0	0	4244
747.29443359375	0.2	FACES	1	0.548192738354373	1	0	0	4252
748.6943359375	0.2	FACES	1	NaN	0	0	1	4260
749.77392578125	0.2	SCRAMBLED	0	0.377885026357035	1	0	0	4268
751.1142578125	0.2	FACES	1	0.533657131611108	1	0	0	4276
752.57373046875	0.2	FACES	1	0.418478838310421	1	0	0	4284
753.64404296875	0.2	FACES	1	0.472366470186444	1	0	0	4292
754.94384765625	0.2	FACES	1	NaN	0	0	1	4300
756.1435546875	0.2	FACES	1	0.449143185204321	1	0	0	4308
757.443359375	0.2	SCRAMBLED	0	0.448932799833983	1	0	0	4316
758.7333984375	0.2	FACES	1	0.578588745801426	1	0	0	4324
760.0634765625	0.2	SCRAMBLED	0	0.447632757092833	1	0	0	4332
761.353515625	0.2	SCRAMBLED	0	0.3634523484684	1	0	0	4340
NaN	0.2	SCRAMBLED	0	0.383369232663881	1	1	0	NaN
NaN	0.2	SCRAMBLED	0	0.438147908461815	1	1	0	NaN
765.10302734375	0.2	FACES	1	0.533864800384436	1	0	0	4348
766.29296875	0.2	SCRAMBLED	0	0.568810202815257	1	0	0	4356
767.623046875	0.2	SCRAMBLED	0	0.577605337570276	1	0	0	4364
768.86279296875	0.2	SCRAMBLED	0	0.437440989468996	1	0	0	4372
770.2626953125	0.2	SCRAMBLED	0	0.378325718811993	1	0	0	4380
771.3623046875	0.2	SCRAMBLED	0	0.438138853136934	1	0	0	4388
772.59228515625	0.2	SCRAMBLED	0	0.459919323096074	1	0	0	4396
773.732421875	0.2	SCRAMBLED	0	0.356832906324598	1	0	0	4404
774.8623046875	0.2	FACES	1	0.438667382238236	1	0	0	4412
776.162109375	0.2	FACES	1	0.353576007978518	1	0	0	4420
777.34228515625	0.2	FACES	1	0.408308199777366	1	0	0	4428
778.61181640625	0.2	SCRAMBLED	0	NaN	0	0	1	4436
779.86181640625	0.2	FACES	1	0.38096534587703	1	0	0	4444
781.20166015625	0.2	SCRAMBLED	0	0.439883210462995	1	0	0	4452
782.50146484375	0.2	FACES	1	0.363749966797059	1	0	0	4460
783.82177734375	0.2	SCRAMBLED	0	0.378288893825356	1	0	0	4468
785.021484375	0.2	SCRAMBLED	0	0.429310515525685	1	0	0	4476
786.1513671875	0.2	FACES	1	0.412208931688838	1	0	0	4484
787.22119140625	0.2	FACES	1	0.552144783770927	1	0	0	4492
788.50146484375	0.2	FACES	1	0.486838689658725	1	0	0	4500
789.72119140625	0.2	FACES	1	0.317820154013134	1	0	0	4508
790.8212890625	0.2	SCRAMBLED	0	0.453340328068407	1	0	0	4516
791.9609375	0.2	FACES	1	0.47753826780081	1	0	0	4524
793.380859375	0.2	FACES	1	0.687230604098659	1	0	0	4532
794.9306640625	0.2	SCRAMBLED	0	0.580104908951398	1	0	0	4538
796.380859375	0.2	SCRAMBLED	0	0.3749000895873	1	0	0	4546
797.560546875	0.2	SCRAMBLED	0	0.339864737600692	1	0	0	4554
798.76025390625	0.2	FACES	1	0.481596562357481	1	0	0	4562
800.13037109375	0.2	FACES	1	0.338333482243343	1	0	0	4570
801.30029296875	0.2	SCRAMBLED	0	0.513290499636241	1	0	0	4578
802.68017578125	0.2	SCRAMBLED	0	0.259123239343353	1	0	0	4586
803.77001953125	0.2	SCRAMBLED	0	0.295058690575843	1	0	0	4594
804.77978515625	0.2	SCRAMBLED	0	0.417590209141508	1	0	0	4602
805.98974609375	0.2	FACES	1	0.547671453512066	1	0	0	4610
807.43994140625	0.2	FACES	1	0.353529523979887	1	0	0	4618
808.51953125	0.2	FACES	1	0.287373738593487	1	0	0	4626
809.76953125	0.2	FACES	1	0.303615670299223	1	0	0	4634
810.859375	0.2	FACES	1	0.516929230828737	1	0	0	4642
812.20947265625	0.2	SCRAMBLED	0	NaN	0	0	1	4650
813.4892578125	0.2	FACES	1	NaN	0	0	1	4658
814.609375	0.2	FACES	1	0.513575742355442	1	0	0	4666
815.859375	0.2	SCRAMBLED	0	0.463382380994972	1	0	0	4674
817.22900390625	0.2	FACES	1	0.433130051361786	1	0	0	4682
818.34912109375	0.2	FACES	1	0.397090162054155	1	0	0	4690
819.40869140625	0.2	FACES	1	0.372864452659996	1	0	0	4698
820.65869140625	0.2	FACES	1	0.398781696653714	1	0	0	4706
821.81884765625	0.2	SCRAMBLED	0	NaN	0	0	1	4714
822.8984375	0.2	SCRAMBLED	0	0.56255206811511	1	0	0	4722
